aX,aY,aZ,gX,gY,gZ
-0.25,0.05,-0.06,-0.63,-32.15,-28.17
-0.18,0.03,-0.03,1.92,-27.02,-35.94
-0.22,-0.03,0.14,-0.93,22.08,-62.84
-0.89,-0.19,0.15,59.79,61.75,-111.31
-2,0.16,-1.46,134.4,90.76,-217.62
0.08,2,0.41,126.78,-94.44,-250.14
0.37,1.99,-0.58,113.01,-80.31,-138.21
-1.63,2,-1.37,134.31,-46.27,-99.62
-2,2,-1.03,186.02,-84.4,-246.28
0.42,2,0.23,128.31,-111.85,-197.15
1.37,1.78,0.38,19.24,-85.34,-105.52
0.16,1.15,-0.13,-30.44,-47.19,13.68
-1.71,2,-0.58,-9.73,-35.47,8.6
-0.84,2,-0.53,-6.69,-3.26,-25.26
0.06,1.34,-0.51,-14.45,13.63,4.1
-0.01,1.12,-0.39,-25.96,22.15,62.79
-0.73,1.45,-0.4,-42.24,56.8,109.38
-0.97,2,-0.32,-95.79,-7.22,141.02
-0.12,2,-0.57,-138.63,58.18,173.38
-0.52,2,-0.59,-161.77,138.33,178.14
-0.93,2,-0.88,-150.94,72.62,180.5
0.04,2,-0.86,-117.05,-37.76,160.39
0.76,1.58,-0.74,-79.66,-109.69,241.08
0.06,0.31,0.33,-85.24,45.94,250.13
-2,-0.96,0.29,23.69,162.17,94.1
-0.79,-0.86,-0.48,82.64,48.25,-27.34
0.63,0.26,-0.12,0.5,95.58,-78.25
-0.7,0.3,-0.07,-22.32,-0.24,-65.16
-0.9,-0.11,-0.2,-4.87,-167.89,9.76
0.23,-0.1,-0.16,-6.15,-222.44,26.92
0.75,0.02,0,-3.02,-167.85,18.31
0.72,0.11,0.04,-7.05,-44.02,-3.27
0.32,0.13,0.03,-18.03,80.69,-21.37
-0.24,-0.09,0.13,-15.19,96.78,-37.95
-0.48,-0.16,0.1,2.33,30.53,-44.23
-0.27,-0.01,-0.09,9.08,-8.76,-39.17
0.1,0.11,-0.11,5.66,-0.68,-37.51
0.05,0.11,-0.02,1.54,3.15,-37.37
-0.12,0.01,-0.04,4.45,6.15,-40.95
-0.32,-0.01,-0.06,13.16,-17.91,-44.44
-0.36,-0.02,-0.1,27.03,-54.26,-52.28
-0.28,-0.05,-0.16,46.53,-75.56,-71.81
0.1,0.01,-0.12,93.41,-93.56,-102.32
-0.36,0.55,-0.02,119.89,-15.88,-136.03
-0.53,1.59,-0.57,193.43,-78.5,-177.19
0.41,2,-0.55,132.8,-135.85,-108.54
-0.19,2,-1.06,121.83,-47.39,-71.43
-0.64,2,-0.35,147.34,-38.76,-107.6
-0.65,2,0.06,108.76,13.27,-53.72
-0.03,1.74,0.03,40.6,-33.18,-7.31
-1.34,1.93,-1.11,-27.27,-122.55,45.18
-2,2,-0.85,-2.37,-142.44,-11.86
0.1,1.98,-0.9,-2.82,8.73,-0.53
0.46,1.34,-0.66,-36.02,211.52,75.56
-0.77,1.9,-0.15,-97.98,168.31,200.96
-2,2,-0.31,-131.36,-5.66,168.21
-0.85,2,-0.35,-151.96,-33.18,164.91
0.77,2,-0.84,-142.44,20.68,178.99
1.13,2,-1.46,-88.69,56.13,195.41
-0.61,1.49,-0.2,-136.12,3.37,237.02
-1.67,-0.51,1.33,-101.5,36.24,188.75
-2,-1.61,-1.63,51.52,200.92,-13.15
-0.74,0.36,-1.05,-27.59,103.45,-126.04
-0.43,-0.16,0.88,-20.24,12.02,-121.77
-0.14,-0.1,0.39,10.38,13.07,-99.35
0,0.11,-0.08,23.79,-86.43,-96.1
0.42,0.29,-0.01,43.35,-70.85,-79.42
0.54,0.38,-0.24,13.01,-57.18,-41.31
0.62,0.09,0.05,5.44,-60.73,-13.15
0.66,0.04,0.03,-0.1,-84.96,1.59
0.5,0.15,0.25,2.73,-45.56,19.38
0.36,0.09,0.25,8.63,-10.29,29.05
0.28,-0.01,0.1,-2.08,-7.24,35.54
0.14,-0.01,0.11,-6.69,-5.69,41.32
0.05,0.05,0.17,-16.34,-2.96,32.3
-0.02,0.03,0.22,-16.24,12.24,19.03
-0.28,-0.01,0.43,-11.23,54.22,-13.95
-0.96,-0.39,-0.28,69.76,132.54,-56.47
-1.04,-0.05,-0.76,99.68,82.31,-120.76
-0.65,0.3,-0.38,104.31,101.84,-209.5
-1.55,-0.3,-0.88,149,130.67,-197.41
0.04,1.68,0.85,90.73,-33.53,-250.14
-0.76,2,-1.06,121.27,0.29,-106.39
-1.98,2,-0.8,134.31,-76.05,-174.26
-0.93,2,-1.37,131.36,-63.8,-196.82
0.2,2,-0.34,112.18,-77.26,-168.89
0.24,1.11,0.18,31.08,-93.34,-96.08
-0.1,1.03,-0.15,-8.35,-65.15,-12.13
-2,1.89,-1.03,-15.51,-11.24,13.85
-1.75,2,-0.95,-6.62,-6.33,1.24
-0.18,1.09,-0.47,-6.41,37.05,42.42
-0.13,1.18,-0.31,-17.24,114.11,96.57
-0.93,1.91,-0.31,-52.68,120.86,139.23
-1.24,2,-0.67,-107.15,88.27,170.22
-1.11,2,-0.77,-157.09,66.91,155.53
-0.78,2,-0.71,-185.69,74.98,161.6
0.01,1.97,-0.66,-197.76,57.45,197.11
0.55,2,-0.91,-180.95,50.08,250.13
0.17,1.7,-1.02,-153.66,15.82,238.89
-0.72,0.71,0.26,-138.02,56.92,176.69
-2,-0.5,-0.36,3.08,230.22,125.63
-1.42,0.1,-2,27.31,45.14,-24
-0.27,-0.03,0.49,-31.18,-59.21,-77.03
0.42,-0.02,0.37,-12.31,2.35,-53.69
0.13,0.04,0.01,0.82,6.19,-27.96
0.1,0.01,-0.08,20.23,-50.72,-47.14
0.43,0.14,-0.21,-5.47,-88.22,8.82
0.59,0.02,0.03,-6.73,-53.07,46.31
0.46,-0.1,0.16,-4.19,-50.95,41.73
0.21,0.03,0.27,2.35,-27.68,29.43
-0.06,0.05,0.29,16.88,-15.8,22.33
0.01,0.09,0.16,3.74,-15.74,19.24
0.2,0.07,0.19,0.11,-3.51,9.47
0.14,-0.05,0.19,-0.59,20.95,1.44
-0.05,-0.06,0.07,4.13,46.31,-12.57
-0.24,-0.04,-0.07,9.87,54.02,-24.56
-0.33,0.03,-0.1,2.19,56.19,-38.06
-0.34,0.07,0.02,-7.53,104.15,-55.25
-0.92,-0.18,-0.32,20.66,124.27,-78.76
-1.35,-0.29,-0.26,80.92,25.54,-151.04
-1.69,0.24,-1.19,128.67,-19.77,-250.14
0.54,1.44,0.23,74.6,-38.34,-189.93
-0.17,2,-2,67.92,-26.71,-82.75
-2,2,-1.82,164.1,7.78,-193.03
-1.27,2,-1.41,171.15,-117.91,-250.14
-0.06,2,-0.65,115.37,-139.05,-208.83
0.92,1.12,-0.39,57.69,-90.87,-135.6
-0.16,1.36,-0.04,34.21,-32.17,-52.29
-1.51,1.81,-0.4,2.08,-53.81,-36.79
-1.28,1.76,-0.57,-18.07,-57.48,-21.71
-0.7,1.06,-0.64,-13.04,7.79,6.71
-0.58,1.06,-0.7,-2.73,40.57,40.09
-0.95,1.49,-0.46,-12.3,45.41,74.6
-0.97,1.6,-0.28,-43.18,51.79,121.88
-0.46,1.42,-0.26,-41.5,94.74,126.05
-0.59,1.96,-0.58,-131.11,99.82,180.26
-0.77,2,-0.67,-159.73,89.98,222.24
-1.54,2,-0.68,-168.92,52.79,201.25
-0.44,2,-0.91,-157.36,-42.11,194.93
0.6,1.57,-0.91,-124.69,-37.24,192.81
0.39,0.67,-0.65,-84.18,5.67,209.4
-0.63,0.45,0.8,-98.32,34.04,160.68
-2,-0.52,0.09,2.1,109.79,61.98
-0.96,-0.51,-1.3,64.12,6.76,-11.3
0.09,0.52,-0.05,-9.75,22.98,-68.46
0.36,0.03,0.25,-9.19,51.35,-57.69
-0.11,-0.21,0.05,8.85,26.56,-61.3
-0.35,-0.25,0,29.74,-36.79,-46.23
0.33,0.3,-0.12,4.64,-77.69,-23.59
0.46,0.2,-0.07,-13.03,-65.73,26.52
0.27,-0.06,0.07,-15.62,-66.79,45.18
0.25,-0.03,0.17,-6.7,-75.89,31.73
0.17,0,0.26,-1.25,-44.31,13.97
0.04,0.01,0.18,0.5,-2.47,3.9
0.02,0.06,0.09,-5.22,17.85,-6.56
-0.06,0.02,0.11,-5.07,13.07,-14.4
-0.06,0.04,0.1,-4.18,8.43,-19.92
-0.19,0.01,0.03,3.5,13.15,-23.53
-0.37,-0.06,-0.08,5.63,0.59,-33.85
-0.41,-0.08,-0.16,32.37,-11,-58.96
-0.6,-0.02,-0.24,54.01,-31.15,-88.65
-1.27,-0.02,-0.04,108.14,-37.04,-115.71
0.28,1.53,-0.27,105.51,-131.56,-202.5
0.21,1.89,-1.32,118.82,-117.28,-131.92
-0.23,2,0.19,140.45,47.91,-184.39
-1.25,2,-0.59,192.11,45.82,-250.14
-1.38,2,-1.39,130.95,-7.93,-190.32
-0.62,1.68,-0.42,86.58,-153.83,-176.13
0.06,1.45,-0.15,43.31,-143.32,-87.49
-0.42,1.59,-0.13,17.81,-57.91,-20.48
-1.17,1.55,-0.46,-4.45,-16.03,-8.63
-1.24,1.81,-0.56,-12.98,7.9,12.27
-0.79,1.47,-0.35,-23.6,58.21,44.25
-0.63,1.38,-0.33,-36.31,94.81,79.8
-0.71,1.83,-0.18,-54.48,98.42,96.63
-1.18,1.04,-0.54,-108.41,62.46,197.34
-0.47,1.57,-0.65,-104.45,50.47,180.11
-0.98,2,-0.91,-176.5,50.53,238.71
-0.83,2,-0.84,-174.42,40.55,202.93
0.2,2,-1.18,-151.41,-2.81,190.5
0.57,1.34,-1.24,-95.9,-16.72,204.39
0.35,0.7,-0.44,-73.72,88.55,202.34
-1.33,0.13,1.15,-108.95,191.4,192.56
-2,-1.36,-1.52,70.55,-44.46,66.68
-0.89,0.52,0.03,15.18,124.27,-74.24
0.34,-0.08,-0.03,15.33,37.09,-84.09
0.12,-0.02,0.09,6.89,-5.66,-62.84
-0.52,-0.21,-0.22,7.34,-58.9,-30.74
0.16,-0.07,-0.17,15.64,-154.28,3.15
0.8,0.24,-0.07,4.63,-154.67,32.5
0.56,0.1,0.15,-3.89,-86.37,44.61
0.25,0.1,0.29,-9.37,-37.79,30.91
0.03,0.08,0.33,-16.47,9.6,7.68
-0.11,-0.07,0.26,-12.31,35.01,-10.06
-0.14,-0.07,0.13,-5.24,43.77,-21.21
-0.1,0.03,0.03,-5.43,40.53,-27.35
-0.06,0.09,0.05,-10.88,52.27,-31.5
-0.07,0.08,0.12,-11.15,60.98,-32.63
-0.25,0.01,0.04,-7.79,40.98,-35.8
-0.47,-0.13,-0.07,8.84,27.42,-56.47
-0.67,-0.14,-0.14,29.56,0.73,-90.17
-0.65,-0.13,-0.3,57.24,-36.37,-125.09
-2,-0.51,-0.32,145.15,-64.53,-180.8
1.14,1.65,-1.64,151.27,-154.96,-250.14
-1.59,2,-1.09,67.63,15.11,-69.73
-1.72,2,-1.13,136.79,-14.07,-240.18
-0.35,2,-0.68,138.57,1.42,-202.83
-0.97,1.2,-0.96,118.49,-34.33,-46.95
-0.91,1.67,-0.31,124.57,-67.63,-84.05
-1.34,2,-0.47,49.87,-105.55,-77.33
-0.89,1.94,-0.28,20.37,-63.05,-56.17
-0.49,1.45,-0.36,9.11,12.67,-18.32
-0.73,1.26,-0.37,3.5,37.44,14.37
-1.07,1.48,-0.56,-25.54,-3.05,45.12
-1,1.63,-0.41,-41.84,-3.06,69.73
-0.55,1.44,-0.21,-50.52,70.53,84.95
-0.13,1.53,-0.21,-77.46,142.38,107.85
-0.98,2,-0.64,-170.25,115.89,139.8
-1.11,1.63,-0.73,-183.81,57.21,230.31
-1.3,2,-0.99,-173.81,19.06,189.18
-0.13,2,-1.03,-158.73,-8.42,199.95
1.14,1.72,-1.17,-130.44,19.37,194.73
0.16,1.12,-0.73,-49.67,66.92,227.05
-0.85,0.34,1.17,-91.22,68.48,250.13
-2,-1.41,0.3,40.78,65.72,64.16
-0.53,-0.78,-1.23,78.44,103.18,-25.27
-0.09,0.25,-0.04,7.63,64.83,-101.39
0.59,0.17,0.42,-7.42,83.57,-103.92
-0.43,-0.04,-0.07,-2.7,11.76,-54.51
-0.32,-0.21,-0.06,20.03,-106.32,-6.44
0.58,0.2,-0.12,7.21,-161.61,27.22
0.64,0.16,0.06,-2.92,-97,52.44
0.31,0.13,0.18,-15.13,-43.41,38.5
0.02,0.08,0.24,-25.77,10.02,14.71
-0.28,-0.08,0.21,-20.78,46.35,-6.57
-0.26,-0.08,0.07,-8.05,48.82,-19.56
-0.01,-0.01,0.05,-4.21,37.89,-22.61
0.14,0.03,0.1,-12.4,49.29,-21.15
0.1,0.06,0.06,-17.78,79.03,-24.5
-0.3,0.07,0,-27.81,71.56,-28.88
-0.66,-0.14,-0.13,-13.53,22.26,-38.13
-0.84,-0.31,-0.24,22.9,-13.18,-65
-0.98,-0.12,-0.01,58.68,-42.26,-116.07
-1.27,-0.11,-0.4,121.92,-22.29,-205.98
0.7,1.62,-0.97,181.58,-85.34,-250.14
-0.34,2,-1.89,95.27,20.47,-135.04
-0.06,1.48,-2,130.69,-20.51,-122.1
-2,2,-1.33,162.4,-59.29,-110.66
-2,2,-0.36,172.48,-7.07,-162.4
-0.14,2,0.26,104.81,-101.74,-154.88
0.71,1.31,-0.07,-2.27,-119.81,-100.95
-0.39,1.37,-0.56,-24.15,-111.82,0.5
-0.91,2,-0.62,7.99,-54.02,-0.89
-1.16,1.63,-0.54,16.32,39.06,-24.45
-0.52,1.37,-0.59,29.36,71.05,-6.41
-0.51,0.94,-0.6,-12.53,26.63,53.53
-0.91,1.13,-0.55,-21.02,19.03,95.16
-1.08,1.46,-0.44,-27.02,37.03,115.37
-0.76,1.65,-0.35,-81.5,79.06,129.87
-0.81,1.68,-0.31,-143.25,82.59,183.69
-1.22,2,-0.75,-140.31,71.43,181.92
-1.15,2,-0.51,-145.57,8.87,171.09
0.32,2,-0.39,-148.97,-0.5,175.15
0.82,1.58,-0.84,-114.71,45.34,183.31
-0.15,1.17,-0.4,-146.58,12.66,181.32
-1.33,-0.43,1.27,-87.64,37.75,160.34
-2,-1.51,-1.46,124.79,45.58,39.7
-0.12,-0.09,-0.8,17.8,-10.18,-29.33
0.69,0.44,0.33,-19.96,68.89,-84.31
-0.05,-0.01,0.1,-7.18,82.21,-60.66
-0.76,-0.45,-0.06,39.95,-15.24,-61.96
0.05,0.21,-0.17,35.52,-126.34,-21.7
0.79,0.36,-0.01,8.22,-137.22,41.64
0.64,0.06,0.1,-3.61,-85.44,47.5
0.28,-0.1,0.19,-8.24,-34.46,33.11
0.04,0.07,0.29,-9.22,-3.26,13.86
-0.09,0.02,0.22,-7.5,28.79,4.38
-0.13,-0.02,0.12,-3.66,50.47,-10.24
-0.11,0,0.04,0.13,48.75,-24.85
-0.12,0,0.02,1.46,40.79,-25.59
-0.1,0.03,-0.08,-0.08,43.83,-26.93
-0.17,0.03,-0.05,-7.28,63.5,-34.26
-0.36,0,0.1,-17.02,76.76,-49.16
-0.79,-0.2,-0.17,16.67,60.59,-79.96
-1.55,-0.16,-0.1,86.27,6.11,-143.1
-1.25,0.7,-0.4,113.09,-127.34,-221.44
0.59,2,-0.51,151.89,-58.75,-250.14
0.76,2,-0.81,134.22,92.81,-149.31
-1.18,1.71,-2,212.31,39.94,-169.73
-2,2,-0.92,151.28,-115.24,-121.37
-0.57,1.88,-0.12,92.15,-173.66,-92.6
-0.5,1.9,-0.3,38.66,-131.18,-62.85
-0.57,1.79,-0.32,13.9,-16.53,-59.37
-1.03,1.13,-0.74,-2.35,5.31,2.25
-1.11,1.04,-0.94,0.88,-33.11,33.46
-0.96,1.6,-0.66,4.02,-28.76,57.77
-0.49,1.63,-0.38,-16.6,26.63,92.56
-0.52,1.4,-0.45,-36.97,101.35,108.56
-0.75,1.71,-0.49,-103.89,74.24,164.05
-0.79,2,-0.38,-141.93,46.56,207.21
-1.2,2,-0.8,-146.15,24.5,176
-0.55,2,-0.71,-144.05,-18.92,185.16
0.75,2,-0.96,-132.84,-39.63,186.17
1.24,1.21,-0.87,-55.61,-59.6,188.27
-0.09,0.9,-0.18,-74.91,-12.29,250.13
-1.45,0.54,1.46,-152.98,205.98,162.34
-2,-1.03,-1.88,121.72,-6.95,41.62
-0.25,-0.4,0.03,-8.99,154.85,-93.26
0.32,-0.01,0.31,-6.49,148.55,-106.62
0.28,0.11,0.14,-21.95,119.33,-86.64
-1,-0.16,-0.06,-17.94,-2.53,-38.11
-0.47,-0.18,-0.07,18.37,-177.42,-3.21
0.61,0.15,-0.08,17.91,-211.23,26.27
0.77,0.22,0,0.68,-132.3,50.96
0.45,0.1,0.16,-15.55,-63.66,38.86
0.25,0,0.21,-23.5,0.5,11.24
0,-0.03,0.21,-21.77,48.22,-8.37
-0.12,-0.08,0.14,-11.13,60.3,-21.37
-0.16,-0.08,0.05,-0.79,43.27,-25.27
-0.14,0,-0.02,0.3,26.69,-30.49
-0.17,0.05,-0.01,-0.85,67.66,-39.85
-0.48,-0.02,-0.16,-9.12,69.24,-53.81
-0.74,-0.31,-0.34,35.48,40.37,-91.51
-0.99,-0.29,-0.07,96.63,-31.86,-137.56
-1.83,0.36,-2,103.72,-58.28,-184.91
0.29,1.91,-0.12,134.32,-141.37,-208.37
-1.23,2,-2,129.86,-89.79,-109.17
-1.75,2,-2,162.72,-92.49,-211.65
-0.44,2,0.05,180.5,-90.92,-202.23
-0.39,1.27,0.37,107.08,-84.76,-105.82
-0.08,1.9,0.19,75.1,-68.74,-109.44
-0.8,2,0.17,12.6,-56.02,-75.4
-0.65,1.57,-0.29,-34.45,-43.47,-17.32
-0.78,1.41,-0.59,-26.33,-16.91,14.46
-0.71,1.4,-0.53,-24.41,22.73,21.71
-1,1.27,-0.4,-36.87,74.92,80.02
-0.91,1.48,-0.37,-49.21,89.02,90.26
-0.7,1.57,-0.41,-78.34,95.37,109.88
-0.8,1.76,-0.64,-146.25,75.24,162.46
-0.81,2,-0.83,-159.37,42.27,205.16
-1.06,2,-0.91,-158.88,43.75,191.66
-0.29,2,-0.74,-156.31,25.45,187.14
0.76,1.56,-0.8,-122.24,2.16,185.83
0.42,0.81,-0.54,-102.69,74.24,202.49
-0.86,0.15,0.79,-137.74,50.68,205.05
-2,-0.94,-0.42,73.5,73.53,52.81
-0.88,-0.17,-1.15,47.85,-55.51,-0.09
0.23,0.39,0.21,-0.78,1.73,-63.54
0.38,0.06,0.14,-14.68,10.11,-61.29
-0.01,-0.18,0.26,4.18,33.89,-63.03
-0.33,-0.12,0,31.5,-21.92,-35.42
0.43,0.24,-0.24,8.9,-90.91,15.18
0.51,0.12,0.01,-0.84,-89.51,50.1
0.33,-0.05,0.08,-0.77,-79.34,50.8
0.2,-0.01,0.16,0.55,-40.08,31.48
0.03,0.02,0.19,-0.39,-7.75,18.23
0.02,0.01,0.1,-2.24,27.1,3.95
0,-0.05,0.02,-2.12,49.82,-11.52
-0.12,-0.03,0.07,-4.23,70.89,-25.27
-0.41,0,0.04,4.83,66.84,-31.73
-0.48,0.01,-0.14,11.05,57.94,-41.47
-0.43,-0.07,-0.08,23.73,42.83,-66.16
-0.46,-0.06,-0.08,50.37,43.27,-105.68
-1.36,0.12,-0.1,51.4,108.47,-178.4
0.39,1.51,-0.44,122.45,-94.03,-232.34
0.77,2,-0.29,85.95,-143.12,-119.37
0.2,2,-0.28,118.82,-21.34,-80.49
-1.07,2,-1.14,165.56,-5.01,-145.95
-1.3,2,-2,173.38,-47.73,-147.03
-0.52,2,-0.17,133.18,-113.13,-134.66
0.62,1.61,0.19,62.33,-94.82,-114.6
-0.13,1.07,-0.04,16.56,-17.44,-48.5
-1.11,1.16,-0.51,-26.24,-28.21,-1.89
-1.09,1.21,-0.86,-27.68,-16.44,31.34
-0.47,1.2,-0.85,-10.03,52.56,28.63
-0.67,1.23,-0.6,-24.64,81.6,63.31
-0.86,1.52,-0.29,-71.41,43.27,121.1
-0.8,1.86,-0.21,-123.7,3.46,158.32
-0.95,2,-0.47,-159.99,12.06,178.55
-0.86,2,-0.61,-181.95,40.94,161.95
-0.22,2,-1.01,-177.35,44.43,181.88
0.67,2,-1.33,-151.9,21.11,214.42
0.99,1.28,-1.11,-71.7,-78.42,203.31
-0.25,0.48,-0.2,-79.22,73.37,250.13
-2,-0.1,1.75,-105.95,219.97,122.95
-1.08,-0.05,-2,71.76,11.69,13.79
-0.06,-0.08,0.58,7.75,159.63,-64.05
0.49,0.03,-0.17,-14.56,90.34,-114.25
-0.09,-0.06,0.11,-14.63,32.21,-53.85
-0.94,-0.23,-0.11,4.63,-101.22,-9.26
0.18,-0.01,-0.15,27.73,-208.67,26.48
0.86,0.18,0.04,15.18,-165.27,38.55
0.59,0.12,0.16,-2.66,-76.46,35.5
0.17,0.07,0.18,-14.69,-11.35,12.53
-0.03,0,0.13,-20.48,39.59,-12.5
-0.17,-0.08,0.07,-13.81,60.34,-28.74
-0.22,-0.09,0.03,-4.86,53.14,-37.47
-0.18,-0.02,0.04,1.09,32.54,-40.76
-0.12,0.04,0.07,-0.6,20.05,-42.16
-0.06,0.06,0,-1.07,17.66,-40.45
-0.27,-0.02,-0.11,-2.06,-2.3,-42.4
-0.52,-0.17,-0.26,31.55,-25.48,-55.98
-0.87,-0.27,0.07,70.45,-39.13,-89.82
-2,-0.46,-1.13,93.43,-12.22,-159.86
0.21,2,-0.82,71.95,-189.23,-250.14
0.19,2,0.31,72.34,79.24,-168.52
-0.29,1.84,-1.23,140.73,47.66,-163.49
-1.79,2,-1.19,147.5,6.08,-208.71
-0.94,2,-0.5,108.81,-74.27,-134.42
-0.15,1.58,-0.29,49.2,-122.17,-92.29
-0.42,1.42,-0.04,1.09,-94.56,-26.34
-0.87,1.3,-0.66,-11.57,-55.28,-15.25
-1.03,1.57,-0.92,15.47,-11.8,-16.94
-0.62,1.65,-0.68,32.96,41.07,1.81
-0.54,1.66,-0.4,19.59,75.54,41.68
-0.84,1.54,-0.41,-15.21,51.02,80.8
-1.09,1.56,-0.53,-36.13,9.69,99.77
-1,1.9,-0.44,-73.44,6.95,119.98
-0.64,2,-0.17,-146.4,26.48,184.06
-0.48,2,-0.52,-161.2,86.31,207.29
-1.17,2,-0.88,-148.61,51.81,174.69
-0.45,2,-0.96,-129.41,0.64,165.49
0.28,0.99,-0.77,-116.24,25.21,162.15
-0.96,0.5,0.45,-111.84,-45.59,160.24
-1.09,-0.46,0.67,-84.4,-38.39,134.49
-1.87,-0.94,-0.66,67.76,33.02,27.53
-0.14,0.08,-0.67,49.18,31.78,-35.65
0.65,0.31,0.15,-13.27,98.4,-46.78
-0.11,-0.2,0.08,-9.09,126.64,-37.38
-0.5,-0.34,-0.07,19.78,39.09,-44.89
-0.22,0.05,0.07,40.16,-24.89,-10.53
0.38,0.26,0,12.56,-37.82,12.92
0.29,0.04,0.05,-2.44,-42.53,33.47
0.13,-0.03,0.11,-0.95,-48.16,29.5
0.14,0.02,0.14,0.45,-16.83,18.7
0.14,-0.01,0.13,-3.83,25.22,9.54
0.05,-0.01,0.07,-6.78,44.77,-1.94
-0.04,0.05,0.01,-9.01,51.11,-9.74
-0.24,0.03,0.07,-10.08,56.69,-11.27
-0.48,-0.05,-0.03,-6.92,39.41,-19.8
-0.54,-0.17,-0.24,10.39,21.86,-43.18
-0.55,-0.11,-0.15,30.12,12.23,-74.89
-1.36,-0.12,-0.06,42.82,56.87,-154.89
-1.33,0.24,-0.42,103.56,-43.96,-205.43
-0.67,2,-0.48,201.63,-72.2,-250.14
-0.12,2,-1.6,109.47,-79.7,-218.71
0.42,2,-2,140.76,-14.51,-141.69
-1.22,1.43,-0.62,137.27,31.52,-90.95
-1.94,1.86,-1.26,136.95,-2.55,-90.18
-1.46,2,-0.7,101.37,-161.24,-95.82
-0.07,1.61,-0.64,25.01,-169.4,-45.99
-0.31,1.25,-0.59,15.41,-86.18,21.92
-0.62,1.52,-0.82,47.51,33.69,35.05
-1.36,1.9,-0.74,42.34,35.5,51.68
-0.84,1.87,-0.22,7.46,12.08,78.4
-0.51,1.65,0,-35.58,37.3,104.3
-0.62,1.82,0,-107.42,63.55,124.56
-0.85,2,-0.17,-161.06,52.58,172.01
-1.04,2,-0.48,-179.73,77.56,161.1
-0.83,2,-0.83,-185.02,60.67,151.52
0.34,2,-1.26,-174.68,42.02,175.1
0.68,1.52,-1.5,-122.29,59.85,193.28
-0.03,0.85,-0.64,-104.99,34.34,200.07
-1.09,0.13,1.15,-108.57,-19.07,204.27
-2,-0.94,0.01,21.04,63.76,60.85
-0.41,0.05,-1.75,38.08,93.62,5.4
-0.01,0.27,0.25,-25.47,112.79,-67.55
0.22,0.01,0.33,-19.64,85.24,-69.94
-0.22,-0.19,0.11,-1.01,50.18,-58.53
-0.45,-0.2,-0.2,25,-57.92,-26.95
0.44,0.24,-0.32,4.6,-156.44,21.6
0.53,0.11,-0.02,-5.73,-126.92,55.27
0.28,-0.05,0.13,-2.94,-111.84,51.79
0.14,0.05,0.22,-4.43,-91.34,32.44
0.13,0.03,0.32,-6.76,-47.77,18.85
0.17,0.01,0.23,-9.18,8.19,5.55
0.14,0,0.1,-12.14,46.92,-13.43
-0.03,0.01,0.03,-8.99,71.63,-24.89
-0.31,0,0.03,-5.22,74.11,-33.24
-0.41,0,-0.08,-1.78,68.3,-47.93
-0.5,-0.13,-0.02,0.26,91.89,-70.14
-0.9,-0.27,-0.17,39.88,84.26,-115.08
-1.64,-0.2,-0.17,131.14,19.64,-177.24
-0.01,1.68,-0.45,92.97,-96.75,-246.42
1.54,2,-1.06,110.32,-86.65,-112.1
-0.43,2,-0.68,131.13,63.21,-142.99
-2,2,-1.12,168.5,-75.34,-204.1
-0.94,2,-0.91,182.03,-136.45,-141.81
0.74,1.55,-0.04,101.98,-115.95,-139.84
0.42,1.09,0.24,52.58,-25.04,-67.78
-0.88,1.61,-0.25,14.31,-20.02,-25.91
-1.57,1.79,-0.78,-18.19,-51.66,30.73
-1.01,1.58,-0.94,-11.32,-10.6,26.99
-0.39,1.53,-0.61,-7.29,49.08,45.87
-0.15,1.66,-0.42,-29.29,90.02,80.69
-0.53,1.86,-0.32,-106.4,98.98,141.7
-1.06,1.99,-0.68,-140.06,77.97,188.82
-1.45,2,-0.84,-142.97,48.71,156.24
-0.62,2,-0.54,-153.35,46.72,159.04
0.28,1.97,-0.63,-146.6,21.5,182.78
0.44,1.7,-1.04,-104.71,-17.34,209.51
-0.25,0.95,-0.35,-80.23,-88.81,186.22
-0.98,0.23,1.09,-98.24,-45.43,159.74
-2,-0.97,-0.17,36.88,40.62,53.25
-0.44,0.13,-2,28.18,63.83,-33.78
0.54,0.06,0.54,-20,36.06,-68.84
0.66,0.13,0.61,-12.04,133.39,-72.97
-0.53,-0.25,-0.24,16.89,69.21,-72.45
-0.39,-0.13,-0.31,27.71,-97.8,-31.92
0.8,0.22,-0.09,14.6,-134.11,26.29
0.68,0.14,0.09,4.62,-65.21,41.25
0.11,-0.05,0.23,-2.8,-35.5,32.92
-0.05,-0.01,0.25,-3.78,-28.44,11.69
-0.05,0,0.16,-6.09,1.91,-1.96
-0.03,-0.07,0.11,-1.56,26.79,-16.4
-0.05,-0.05,0.06,10.38,34.92,-28.73
-0.13,0.06,0.1,1.85,42.18,-36.12
-0.11,0.03,0.09,-6.02,57.73,-37.32
-0.2,0.04,-0.14,-20.65,60.59,-46.23
-0.33,-0.21,-0.21,11.83,68.21,-54.03
-0.64,-0.13,-0.05,13.32,92.63,-108.24
-2,-0.59,-1.8,157.6,39.21,-159.91
0.06,1.8,0.87,94.59,-182.21,-250.14
-0.11,2,-1.33,109.47,-20.99,-170.51
-0.61,2,-2,117.31,55.66,-192.22
-2,2,-0.39,135.43,-1.38,-221.93
-1.42,2,-0.95,114.82,-157.77,-166.55
0.79,1.49,0.3,44.95,-108.88,-135.16
0.4,0.78,0.03,23.57,19.66,-50.85
-1.38,1.35,-0.86,-2.47,-17.24,7.94
-2,1.63,-1.33,5.6,-86.52,26.06
-0.68,1.5,-0.9,14.34,-51.28,30.44
0.11,1.17,-0.42,22.21,74.62,63.97
-0.06,1.37,-0.29,2.24,145.15,111.95
-1.2,1.99,-0.51,-90.84,99.89,175.85
-1.97,2,-0.65,-112.26,-18.76,191.66
-1.39,2,-0.55,-125.79,-36.76,165.88
-0.11,2,-0.4,-143.79,-9.52,159.64
0.78,2,-0.72,-130.5,-2.17,181.21
0.37,1.66,-0.36,-98.45,-4.39,212.61
0.03,0.83,0.1,-103.27,-77.71,209.26
-0.09,0.36,0.65,-74.11,-20.94,197.56
-2,-0.75,-0.64,36.92,193.2,73.31
-0.9,-0.09,-1.79,-25.82,64.18,-61.01
0.85,0.07,1.08,-16.21,63.31,-44.04
0.6,0.02,0.03,-28.18,137.27,-62.43
-0.51,-0.24,-0.2,-0.7,75.37,-52.37
-0.68,-0.11,-0.11,11.71,-76.27,-4.81
0.46,0.14,0.02,9.53,-146.21,37.86
0.65,0.04,0.11,1.89,-94.9,49.24
0.33,0.11,0.18,-9.34,-52.3,37.23
0.05,0.07,0.24,-15.94,-10.74,21.08
-0.01,-0.04,0.2,-15.64,26.56,6.38
-0.02,-0.04,0.11,-10.25,41.32,-5.77
-0.12,-0.04,0.05,-6.11,43.31,-16.58
-0.19,0.01,0.03,-8.47,46,-24.18
-0.23,0.02,0.01,-8.98,68.76,-30.73
-0.49,-0.02,-0.07,-12.23,44.6,-40.94
-0.58,-0.18,-0.19,18.92,18.81,-63.37
-1.18,0.12,-0.07,44.87,22.55,-121.26
-1.82,0.07,-0.25,120.62,-132.63,-171.76
1.16,2,-1.66,64.51,-170.34,-220.51
-0.62,2,-1.21,79.03,3.4,-57.88
-1.59,2,-2,179.08,2.75,-227.23
-1.72,2,-1.25,175.09,-59.85,-219.27
-0.04,2,-0.58,103.77,-40.48,-147.43
0.26,1.48,0.2,85.4,-18.13,-125.69
-0.55,1.82,-0.05,31.35,1.7,-63.04
-1.39,1.71,-0.65,-15.27,-83.74,-13.24
-1.13,1.42,-1.06,-28.32,-141.69,20.5
-0.62,1.2,-0.75,-5.95,-62.17,28.83
-0.08,1.18,-0.49,12.4,73.51,53.76
-0.4,1.41,-0.41,-5.71,125.88,92.73
-0.98,1.7,-0.57,-65.44,88.63,126.62
-1.63,1.98,-0.57,-98.2,-1.78,171.16
-1.45,2,-0.53,-108.79,-51.84,170.23
-0.84,2,-0.49,-116.24,-43.12,168.73
0.24,2,-0.58,-114.53,-28.17,153.64
0.57,1.7,-0.64,-103.18,37.66,167.48
0.14,1.18,-0.42,-107.15,76.66,158.58
-0.71,0.1,0.48,-105.35,-34.79,146.73
-1.61,-0.52,0.38,-26.01,45.27,71
-1.31,-0.62,-1.1,56.73,86.99,-5.34
0.07,0.28,-0.23,-15.79,45.56,-30.78
0.27,-0.02,0.32,-8.05,73.01,-17.95
-0.27,-0.16,0,7.92,8.9,-17.11
-0.09,-0.1,-0.06,10.79,-60,-4.04
0.34,0.08,0.01,3.03,-51.29,10.04
0.26,0.09,0.04,-6.16,-53.71,27.19
0.14,0.01,0.14,-4.3,-55.55,26.66
0.15,0.05,0.21,-3.24,-26.74,20.31
0.14,0.02,0.15,-6.02,18.85,12.3
0.01,0.01,0.12,-9.49,37.95,3.18
-0.09,-0.01,0.1,-6.21,37.08,-4.24
-0.15,0,0.07,0.29,35.46,-8.38
-0.26,0.01,-0.08,3.6,32.44,-17.46
-0.2,-0.05,-0.06,6.95,43.03,-34.51
-0.42,-0.16,-0.09,12.66,67.27,-67.07
-1.08,-0.21,-0.21,52.44,96.34,-116.8
-2,0.01,-0.69,145.66,-85.29,-179.85
0.7,2,-0.43,171.11,-144.31,-248.6
-1.35,2,-2,87.15,-71.51,-77.02
-0.22,2,-0.7,120.1,-74.08,-202.66
-0.31,2,-1.22,116.86,7.41,-158.69
-0.81,1.64,-0.7,93.72,-37.47,-63.51
-0.9,1.71,-0.58,56.02,-36.94,-71.21
-1,2,-0.68,24.5,-72.79,-38.36
-0.98,1.67,-0.57,-17.95,-59.89,4.95
-0.34,1.47,-0.66,-7.65,13.66,21.99
-0.25,1.91,-0.58,-21.19,68.28,68.13
-0.54,2,-0.36,-92.08,77.19,110.4
-0.79,2,-0.1,-131.62,67.05,161.29
-1.15,2,-0.26,-161,85.05,140.26
-0.7,2,-0.74,-161.29,59.76,129.94
0.04,2,-1.07,-160,43.18,146.56
0.58,1.79,-1.16,-130.13,64.11,179.39
0.33,1.2,-0.82,-105.15,3.28,190.16
-0.43,0.41,0.28,-94.68,-29.44,201.4
-2,-0.64,0.58,-12.47,114.11,91.99
-1.29,-0.93,-1.62,46.86,141.61,-3.07
-0.24,0.35,-0.02,-2.39,74.58,-94.02
0.22,0.12,0.23,-9.94,41.22,-75.44
-0.08,-0.04,0.2,5.18,-11.55,-42.17
-0.08,-0.17,-0.18,32.89,-114.24,-6.2
0.75,0.19,-0.36,9.08,-153.26,34.83
0.65,0.11,0.05,1.27,-92.59,64.99
0.24,0,0.18,1.48,-72.23,57.76
0.03,0.05,0.32,-1.62,-35.25,34.95
-0.01,-0.04,0.34,5.89,3.37,19.05
0.14,-0.08,0.15,4.41,33.37,0.99
0.21,-0.03,0.03,2.82,60.48,-15.37
-0.02,0.03,0,-1.49,84.35,-24.54
-0.28,0.03,-0.03,-6.36,91.77,-29.9
-0.46,-0.02,-0.09,-6.34,76.57,-39.93
-0.53,-0.07,-0.09,-1.02,73.16,-55.49
-1.12,-0.21,0.33,47.64,53.94,-81.51
-2,-0.51,-1.88,169.47,-2.15,-174.24
1.1,1.75,-0.68,98.43,-250.14,-250.14
-0.23,2,-1.05,85.14,85.47,-99.5
-0.86,2,-0.94,123.63,62.89,-245.79
-2,2,-2,165.26,-33.04,-153.36
-0.97,2,-0.76,147.58,-171.79,-170.13
0.66,1.59,-0.07,99.02,-104.89,-152.27
0.79,1.53,0.1,42.73,15.95,-57.1
-0.61,1.37,-0.27,-5.02,24.77,13.53
-1.52,1.58,-1.05,-10.57,0.44,55.49
-1.08,2,-0.79,-19.8,1.42,52.11
-0.45,1.66,-0.28,-68.67,19.2,90.44
-0.42,1.82,0.03,-115.98,36.42,152.01
-1.02,2,-0.48,-141.14,37.41,174.62
-1.14,2,-0.99,-127.9,-4.93,156.06
-0.28,2,-0.89,-124.76,-39.02,167.04
0.91,1.66,-0.59,-106.26,-34.39,180.19
0.86,1.36,-0.58,-74.6,-42.98,206.78
-0.23,0.86,0.15,-77.1,-31.45,236.12
-1.38,-0.15,0.93,-80.7,192.96,134.42
-1.96,-1.02,-1.62,51.11,132.12,12.39
-0.53,0.05,0.08,-0.89,123.4,-77.09
0.12,0.03,0.07,-4.69,107.69,-92.96
-0.18,-0.05,0.02,-1.01,39.22,-71.83
-0.74,-0.14,-0.19,17.79,-70.73,-42.25
0.03,0.03,-0.21,26.84,-177.34,2.07
0.64,0.17,0.01,12.31,-189.21,31.5
0.63,0.11,0.16,4.8,-154.58,38.98
0.49,0.1,0.25,-8.93,-88.08,27.99
0.25,0.04,0.29,-17.23,-14.11,11.12
0.01,0.03,0.22,-20.11,26.23,1.85
-0.15,-0.06,0.14,-14.42,36.62,-13.79
-0.17,-0.03,0.03,-9.43,35.61,-21.31
-0.15,-0.02,-0.02,-8.31,53.5,-27.46
-0.28,-0.01,-0.09,-13.73,53.45,-39.73
-0.48,-0.25,-0.25,23.17,65.3,-66.32
-0.98,-0.23,-0.12,79.56,54.94,-111.69
-2,-0.1,-1.46,126.93,17.56,-188.22
-0.23,2,0.52,121.39,-98.66,-250.14
-0.16,2,-2,103.69,-96.89,-116.94
0.34,2,-1.84,111.42,23.82,-173.53
-1.28,2,-1.3,143.34,49.51,-134.27
-2,2,-0.37,127.05,-116.4,-101.65
-0.5,2,-0.13,110.24,-183.79,-82.89
0.73,1.96,0.41,26.92,-47.31,-47.95
-0.11,1.11,-0.23,-15.9,72.89,19.3
-2,1.94,-1.06,-27.82,54.13,46.39
-1.3,2,-0.54,-35.12,-40.44,36.22
-0.11,1.45,-0.5,-76,47.74,80.98
-0.25,1.52,-0.32,-122.86,99.99,153.07
-1.13,2,-0.66,-140.86,104.63,173.18
-1.39,2,-0.9,-135.18,42.85,166.94
-0.69,1.97,-0.82,-130.19,15.99,157.57
0.07,1.64,-0.86,-105.27,-7.27,149.65
-0.03,1.16,-0.62,-83.66,-57.63,147.79
-0.23,0.66,-0.15,-56.53,-156.31,166.12
-0.46,0.16,0.96,-64.48,-130.56,153.63
-2,-0.5,0.3,20.96,-17.52,46.45
-0.26,-0.21,-1.24,59.3,-7.08,10.22
0.95,0.01,0.17,-16.88,97.54,-26.49
0.57,0.07,0.19,-27.36,189.58,-52.81
-0.56,-0.22,-0.08,-7.79,127.18,-47.18
-0.78,-0.21,0.05,19.85,-10.44,-14.25
0.27,0.25,-0.1,8.44,-124.63,21.36
0.45,0.19,0.08,0.49,-96.64,44.08
0.21,-0.05,0.13,-3.54,-69.52,38.69
0.12,0.02,0.16,-7.43,-31.16,17.58
0.13,0.06,0.18,-16.83,26.87,1.78
0,-0.04,0.13,-17.4,65.13,-15.73
-0.18,-0.08,0.06,-8.82,71.96,-31.81
-0.25,-0.02,0.09,-4.44,69.67,-45.05
-0.26,0,0.05,-3.23,88.55,-54.66
-0.31,-0.06,-0.07,6.11,98.93,-75.12
-0.7,-0.07,0.11,51.08,128.18,-120.92
-2,-0.25,-1.7,108.85,19.62,-192.74
-0.35,1.9,-0.66,118.89,-100.8,-250.14
-1.36,2,-1.21,106.76,-66.7,-222.79
0.35,2,-0.86,132.42,-46.6,-250.14
0.7,1.78,-0.42,92.09,-6.4,-198.2
0.1,0.69,-0.58,63.66,-15,-67.27
-0.89,1.73,-0.61,55.46,-43.87,21
-2,2,-0.94,45.62,-66.08,-26.83
-1.36,2,-0.92,38.87,-86.36,-49.47
-0.04,1.09,-0.11,-6.27,-34.95,3.01
0.19,0.98,-0.4,20.13,66.89,58.24
-1.29,1.93,-0.85,-12.56,39.2,121.93
-1.59,1.95,-0.56,-24.97,-69.6,113.37
-0.57,1.62,-0.53,-47.95,-57.99,113.85
-0.28,1.98,0,-122.24,51.31,176.31
-0.75,2,-0.34,-131.95,94.31,157.87
-0.94,2,-0.52,-131.31,14.28,125.53
0.08,1.95,-0.75,-109.37,-54.41,110.95
0.97,1.07,-0.72,-79.21,53.82,150.8
0.19,0.49,0,-118.72,81.21,205.19
-0.87,-0.34,0.76,-127.6,63.59,162.47
-2,-0.63,-0.65,66.9,82.21,68.28
-0.92,0.2,-0.98,13.56,23.05,11.05
0.29,-0.07,0.44,-24.53,36.43,-14.41
0.3,-0.3,0.1,-2.49,55.79,-28.51
-0.14,-0.11,-0.08,-4.25,38.38,-17.11
-0.06,0.09,-0.06,2.21,-37.02,10.33
0.48,0.2,-0.05,-8.44,-60.11,54.11
0.28,0.06,0.07,-12.86,-43.55,70.08
0.14,0.04,0.15,-9.69,-33.93,59.02
0.09,0.04,0.16,-9.5,0.67,41.02
0.05,-0.04,0.09,-6.84,39.63,25.08
-0.06,-0.03,-0.01,2.37,57.83,7.15
-0.11,-0.02,0,1.92,57.56,-2.69
-0.18,0,-0.06,1.11,67.11,-12.61
-0.36,0,-0.08,-5.3,86.46,-29.29
-0.83,-0.19,-0.01,13.95,50.4,-50.8
-2,-0.16,-0.83,49.2,79.87,-141.94
0.46,1.31,-0.16,106.69,-156.76,-192.83
-0.23,2,-2,122.78,-2.47,-136.85
-1.17,2,-0.43,159.82,39.14,-206.44
-1.96,2,-1.75,195.35,-32.76,-238.76
-0.55,2,-0.66,171.31,-127.52,-162.27
0.77,1.28,-0.11,105.44,-155.93,-114.5
1,1.34,-0.53,77.02,-119.91,-13.24
-0.41,2,-0.72,49.3,-27.37,62.45
-1.58,2,-0.55,39.51,2.95,12.91
-0.63,2,-0.05,-3.75,14.38,34.64
-0.19,1.71,0.02,-72.17,61.13,82.89
-0.93,1.96,-0.08,-117.25,61.56,130.4
-1.4,2,-0.23,-139.16,16.57,135.89
-0.79,2,-0.54,-157.92,46.5,128.47
-0.02,2,-0.88,-166.09,99.73,131.82
0.31,1.8,-1.32,-131.56,71.28,146.24
0.07,0.97,-0.92,-89.47,2.28,175.61
-0.51,0.33,0.14,-60.98,-54.08,171.53
-1.06,0,1.06,-59.81,-35.53,121.95
-2,-0.9,-0.33,47.76,26.84,28.15
0.17,-0.11,-1.19,33.64,109.32,-49.59
0.49,0.26,0.09,-29,139.9,-68.78
0.03,-0.04,0.38,-12.62,155.18,-74.27
-0.73,-0.22,-0.05,20.9,96.07,-64.47
-0.53,-0.02,-0.19,25.08,-84.12,-22.4
0.43,0.22,-0.03,9.47,-133.95,21.04
0.52,0.09,0.03,-0.47,-105.08,38.13
0.32,-0.02,0.11,-7.08,-72.34,32.85
0.19,0.04,0.26,-9.04,-35.19,21.15
0.16,0.01,0.16,-6.63,5.82,10.13
0.16,-0.02,0.07,-13.6,48.66,-2.02
-0.04,-0.01,-0.03,-18.17,85.97,-18.22
-0.43,-0.04,-0.01,-21.87,100.17,-30.11
-0.63,-0.08,-0.1,-16.31,89.81,-49.95
-0.77,-0.17,-0.24,-0.1,93.63,-68.97
-1.37,-0.03,-0.3,43.74,18.73,-124.31
-1.5,0.51,-0.32,86.21,-32.08,-195.5
0.27,2,-1.37,121.18,-25.07,-211.76
-0.32,2,-0.84,108.06,64.12,-131.51
-2,2,-1.83,187.15,-15.32,-162.55
-1.79,2,-0.39,163.58,-150.7,-158.55
0.56,1.9,-0.35,96.57,-74.74,-118.82
0.21,1.68,0.21,69.72,-18.56,-46.36
-0.6,1.8,-0.12,10.47,-22.52,2.33
-1.17,1.94,-0.74,-5.95,-48.17,55.67
-0.8,1.98,-0.77,-13.22,-20.18,56.47
-0.3,1.93,-0.55,-56.59,30.27,84.53
-0.35,2,-0.11,-108.22,60.38,158.4
-0.95,2,-0.37,-130.76,52.83,172.85
-1.22,2,-0.54,-125.87,-14.53,151.1
-0.31,2,-0.91,-104.11,-68.37,142.37
0.6,1.65,-0.96,-98.57,-32.47,149.88
0.4,0.72,-0.76,-43.4,-37.84,179.88
-0.08,0.39,0.13,-66.09,-27.19,209.6
-0.84,0.11,1.07,-64.11,77.63,128.51
-2,-0.56,-0.4,27.34,32.98,52.47
-0.28,-0.19,-0.78,3.28,110.09,-46.67
0.06,-0.01,0.19,-26.19,146.63,-71.99
0,-0.18,0.13,-8.4,117.48,-87.11
-0.36,-0.12,0.07,2.74,70.44,-73.6
-0.54,0.04,-0.08,14.11,-45.84,-31.94
0.1,0.15,-0.05,17.87,-151.11,3.27
0.58,0.04,-0.04,16.02,-165.09,34.48
0.56,0.04,0.07,9.69,-123.73,39.05
0.43,0.08,0.12,-3.98,-42.22,27.5
0.15,0.1,0.16,-17.6,16.5,14.56
-0.19,-0.04,0.18,-18.74,44.53,-1.7
-0.46,-0.14,0,-2.45,55.75,-24.24
-0.61,-0.19,-0.2,13.56,30.27,-46.97
-0.56,-0.24,-0.17,39.55,21.12,-80.51
-1.21,-0.42,0,87.19,13.53,-136.85
-0.17,0.53,-0.37,128.53,36.39,-214.52
-0.08,2,-0.76,106.17,-98.02,-154.73
-0.8,2,-0.77,104.77,-19.79,-107.32
-1.36,2,-1.1,142.46,-25.89,-200.73
-1.81,2,-1.13,173.15,-85.17,-195.37
-0.3,1.28,-0.47,108.11,-114.79,-150.69
0.72,1.1,-0.26,80.97,-111.89,-106.16
0.03,1.35,-0.28,60.44,-15.02,12.97
-1.15,1.63,-0.58,34.18,-17.99,61.13
-1.71,2,-0.61,29.98,-16.05,44.31
-0.71,1.91,-0.13,6.7,5.14,55.56
-0.32,1.63,-0.07,-49.94,74.73,93.11
-0.63,1.68,-0.06,-122.89,63.65,149.4
-0.97,2,-0.56,-141.63,8.24,183.68
-1.05,2,-1.12,-115.56,-47.42,167.21
-0.92,2,-1.02,-110.17,-41.44,155.79
0.29,1.73,-0.58,-115.84,11.76,163.92
1.14,1.55,-0.44,-68.53,-8.27,171.47
0.3,0.97,-0.2,-64.9,-22.33,209.48
-0.19,0.22,0.57,-80.19,-22.11,205.39
-1.58,0.1,0.94,-80.65,203.82,59.11
-2,-0.73,-2,103.85,141.23,-0.85
-0.56,-0.19,-0.36,-28.34,71.81,-68.31
0.16,-0.09,0.41,-16.29,85.76,-84.85
0,-0.09,0.38,-2.11,109.29,-84.36
-0.62,-0.04,-0.19,29.92,-3.37,-58.16
0.06,0.12,-0.05,24.85,-132.26,-3.35
0.93,0.21,-0.04,13.7,-122.98,30.87
0.75,0.09,0.11,-3.29,-58.73,47.37
0.32,0.06,0.22,-14.9,-18.79,36.93
0.1,0.01,0.24,-16.85,10.81,17.75
-0.02,0.03,0.16,-21.88,52.13,3.97
-0.2,-0.05,0.05,-22.31,94.27,-9.5
-0.45,-0.18,-0.11,-1.09,88.73,-30.15
-0.58,-0.06,-0.2,9.66,60.66,-52.72
-0.57,-0.15,-0.49,39.99,50.38,-72
-1.72,-0.37,-1.35,87.48,97.94,-150.87
-0.35,1.96,1.61,40.86,8.29,-250.14
-1.41,2,-2,62.64,-41.71,-138.73
1.04,2,-0.22,55.97,-15.68,-216.39
0.43,2,-0.63,70.24,185.3,-182.95
-2,1.58,-1.31,71.63,45.36,-149.15
-1.39,2,-0.73,49.86,-165.08,-117.68
0.38,2,-0.44,13.21,-96.5,-52.43
0.34,1.54,-0.17,-3.48,22.91,-14.28
-0.35,1.38,-0.48,-21.17,50.01,36.4
-0.93,1.58,-0.89,-30.57,57.53,72.69
-1.14,2,-0.84,-58.4,76.34,97.45
-1.27,1.75,-0.49,-90.35,48.63,121.53
-1.12,1.74,-0.25,-120.23,10.79,132.95
-0.52,2,-0.61,-129.73,-5.31,164.64
-0.2,2,-0.88,-113.6,-22.9,179.21
-0.29,1.54,-0.83,-84.31,-87.74,180.2
-0.07,0.75,-0.12,-57.65,-186.23,169.63
0.04,0.11,0.68,-43.92,-188.32,166.15
-1.32,-0.21,0.83,-33.07,-36.8,64.66
-1.18,-0.28,-0.8,67.69,-9.85,25.37
0.01,0.12,-0.78,12.7,34.66,-40.47
0.56,0.08,0.24,-13.85,82.46,-53.24
0.18,-0.13,0.18,-7.13,124.36,-76.28
-0.45,-0.16,-0.07,10,77.43,-62.15
-0.64,-0.04,-0.03,16.96,-46.71,-26.8
0.12,0.1,0,22,-125.42,-5.05
0.5,0.03,-0.07,17.44,-127.39,14.1
0.54,0.02,-0.06,6.65,-86.38,21.24
0.36,0.12,0.01,-4.18,-19.97,16.34
0.14,0.09,0.1,-13.87,43.72,6.53
-0.15,-0.01,0.12,-12.53,63,2.63
-0.5,-0.16,-0.03,-0.63,41.08,-11.49
-0.63,-0.21,-0.17,24.58,18.92,-37.62
-0.65,-0.15,-0.27,41.29,19.96,-68.46
-1.16,-0.16,-0.25,70.55,4.21,-116.32
-0.59,0.13,0.16,80.35,-29.6,-204.09
-0.02,2,-0.54,109.73,-35.76,-215.98
-0.83,2,0.19,130.06,24.8,-130.9
-0.46,2,-0.7,143.34,6.29,-178.48
-1.33,2,-1.06,136.25,-63.83,-129.89
-1.04,1.7,-0.58,77.92,-185.29,-71.4
-0.4,1.67,-0.29,40.78,-116.05,-90.76
-0.28,1.43,-0.75,25.06,6.41,-41.92
-1.44,1.62,-0.68,20.69,16.76,6.06
-1.09,1.5,-0.46,10.92,-6.32,31.21
-0.35,1.68,-0.4,-19.49,-2.39,63.72
-0.57,1.92,-0.28,-49.69,86.19,88.99
-0.8,2,-0.34,-116.65,105.89,109.33
-1.1,1.75,-0.46,-141.09,72.1,144.34
-1.01,1.68,-0.66,-149.11,31.36,161.13
-0.73,2,-0.67,-157.69,39.88,159.46
-0.23,2,-0.76,-154.4,53.59,169.45
0.21,1.64,-1.23,-127.69,38.64,154.86
-0.44,0.74,-0.53,-107.89,-18.34,163.9
-0.76,0.12,0.36,-116.95,-56.95,130.45
-1.65,-0.42,0.34,-2.39,-34.53,92.24
-1.21,-0.65,-1.13,71.38,-24.53,-6.68
0.36,0.28,-0.22,-3.69,28.13,-45.9
0.55,0.18,0.27,-24.64,82.05,-38.06
-0.14,-0.12,0.16,2.42,54.67,-33.94
-0.32,-0.19,-0.07,34.48,-24.07,-24.93
0.37,0.12,-0.18,10.37,-87.51,15.6
0.57,0.15,0.06,6.13,-67.88,43.88
0.27,0.03,0.08,1.76,-43.55,42.31
0.08,0.08,0.17,-2.47,-21.54,30.76
0.03,0.06,0.17,-7.25,-0.69,15.4
0.03,-0.04,0.09,-8.94,30.16,1.05
-0.17,-0.03,0.12,-10.04,37.57,-10.7
-0.4,-0.07,0.04,-1.89,47.47,-23.26
-0.49,-0.02,-0.08,9.96,53.4,-42.44
-0.28,0.03,-0.11,12.02,44.92,-55.91
-0.45,-0.12,0.41,40.76,86.83,-82.82
-2,-0.32,-1.17,82.02,195.39,-180.52
-0.28,2,-0.32,72.4,-39,-250.14
0.08,2,-1.42,120.25,12.18,-124.34
-0.03,1.98,-1.79,90.73,-8.83,-130.66
-2,2,-1.88,151.56,-103.93,-128.73
-0.59,2,-0.6,135.19,-171.83,-84.5
-0.19,1.9,-0.2,93.81,-118.79,-104.46
0.46,1.81,-0.02,55.13,-3.53,-78.98
-0.47,1.52,-0.09,22.94,53.43,-41.47
-1.22,1.67,-0.65,-4.88,-5.72,6.67
-1.15,1.66,-0.8,-15.4,-69.21,38.69
-0.52,1.31,-0.64,-15.62,-29.66,66.49
-0.12,1.38,-0.45,-36.81,56.63,86.68
-0.37,1.78,-0.32,-90.21,76.59,145.53
-1.4,2,-0.47,-112.26,53.22,154.18
-1.49,2,-0.22,-129.1,-16.64,139.82
-0.4,2,-0.51,-127.75,-44.56,135.98
0.64,1.98,-0.99,-127.57,-2.58,146.5
0.93,1.09,-1.01,-84.66,18.24,139.78
-0.25,0.48,-0.53,-67.92,27.9,179.86
-0.63,-0.18,0.74,-91.88,27.86,174
-2,-0.69,0.38,-7.29,40.85,34.92
-0.53,0.28,-0.99,38.47,17.74,13.24
0.13,0.06,0.12,-16.57,95.9,-28.66
0.24,-0.24,0.13,-12.35,101.06,-61.08
-0.14,-0.18,0.18,-1.92,84.64,-62.82
-0.58,-0.01,-0.07,-8.61,25.73,-35.37
-0.25,0.09,-0.07,-6.76,-55.3,-12.99
0.15,0.05,0.02,-6.16,-111.68,6.68
0.37,-0.03,0.08,-0.22,-110.82,12.25
0.42,0.06,0.08,1.89,-57.97,10.33
0.3,0.11,0.07,-6.77,-4.07,2.94
0.08,0.04,0.03,-9.78,32.49,-3.27
-0.15,-0.08,-0.01,-4.18,49.11,-16.28
-0.32,-0.14,-0.03,9.04,45.43,-31.22
-0.4,-0.14,-0.13,19.07,46.83,-56.84
-1.07,-0.26,-0.27,45.6,13.81,-93.83
-1.44,-0.11,0.02,88.68,8.36,-161.05
0.53,1.76,-0.24,106.21,-112.66,-192.84
-0.69,2,-0.37,113.8,49.95,-19.59
-1.99,2,-1.18,128.61,56.77,-158.5
-2,2,-1.6,164.02,-11.69,-218.07
-1.03,2,-1.15,109.47,-116.81,-187.79
0.99,1.44,0.03,53.21,-191.29,-135.5
0.65,0.85,-0.03,18.21,-80.38,-0.37
-0.91,1.3,-0.57,6.26,-46.14,39.41
-1.76,1.83,-0.85,16.98,-54.22,16.37
-0.72,1.63,-0.69,14.56,-21.6,29.72
-0.03,1.16,-0.33,12.72,72.52,53.6
-0.23,1.43,-0.22,-12.27,121.78,83.36
-0.93,1.98,-0.33,-93.7,64.69,136.06
-1.01,2,-0.17,-136.03,-31.73,167.61
-0.47,2,-0.47,-141.18,-42.69,180.77
-0.36,2,-0.89,-151.22,41.26,189.69
-0.22,2,-0.93,-132.91,101.4,152.43
-0.05,1.6,-0.86,-95.75,46.66,140.85
0.27,0.44,-0.46,-53.67,-10.11,206.04
-0.58,-0.14,0.65,-70,-59.99,212.19
-2,-0.35,0.88,-16.74,38.62,82.86
-0.81,-0.42,-1.53,62.22,58.28,27.86
0.45,0.31,-0.06,-8.15,127.67,-31.01
0.45,-0.03,0.18,-10.88,171.93,-76.41
-0.34,-0.07,0.01,-11.1,131.39,-59.85
-0.98,-0.2,-0.09,-0.26,-9.39,-13.52
-0.13,-0.07,-0.06,15.53,-130.76,21.65
0.53,0.1,-0.05,17.81,-144.97,38.8
0.5,0.15,0.1,11.74,-94.65,34.32
0.24,0.09,0.2,1.33,-39.73,24.21
0.07,0.01,0.19,-4.64,6.24,7.78
-0.06,-0.01,0.11,-7.36,33.95,-6.85
-0.14,-0.1,0.02,-2.27,63.64,-24.56
-0.27,-0.03,0.09,1.38,78.15,-41.31
-0.38,-0.05,0.07,12.37,96.04,-70.5
-1.08,-0.18,0.09,38.56,106.17,-117.11
-2,-0.39,-0.97,155.39,10.74,-165.65
-0.74,2,0.06,85.62,-181.83,-238.19
-2,2,-2,143.61,-137.59,-177.78
1.35,2,-0.08,123.82,-143.8,-197.27
1.03,2,-0.55,102.06,45.95,-156.04
-0.97,1.25,-0.69,86.24,94.41,-82.59
-1.74,2,-0.56,83.33,-45.03,-115.4
-0.56,2,-0.61,40.61,-125.92,-41.89
-0.12,1.77,-0.39,4.28,-36.14,-6.09
-0.19,1.7,-0.29,-7.69,81.14,24.01
-0.85,1.9,-0.43,-44.48,79.82,57.13
-0.93,1.89,-0.49,-73.99,11.1,81.62
-0.51,1.77,-0.34,-104.17,5.11,114.79
-0.26,1.93,-0.13,-142.08,71.81,153.25
-0.53,2,-0.39,-169.58,136.83,145.01
-0.73,2,-0.86,-165.19,107,135.53
-0.28,1.97,-1.21,-139.71,20.64,138.95
0.05,1.04,-1.22,-85.46,-67.26,162.31
-0.15,0.35,-0.65,-33.64,-93.23,191.24
-0.15,0.34,0.16,-35.73,-38.88,185.79
-1.25,0.03,1,-53.71,49.31,94.87
-1.83,-0.48,-0.62,36.21,-79.81,59.79
-0.19,-0.26,-0.25,9.46,70.85,-41.64
-0.28,0,0.1,4.29,97,-86.19
0.14,0.07,0.11,7.94,52.76,-102.15
0.08,-0.06,0.12,17.71,35.33,-82.33
0.16,0.13,0.02,12.98,-22.64,-44.92
0.28,0.21,-0.07,1.65,-84.34,-2.6
0.25,0.02,-0.03,-1.33,-109.83,31.3
0.45,0,0.06,-2.59,-107.05,38.23
0.38,0.05,0.19,-10.81,-28.14,25.67
0.05,0.13,0.17,-30.27,51.13,16.98
-0.44,-0.04,0.09,-34.73,96.11,-8.53
-0.89,-0.39,-0.23,2.6,79.74,-56.43
-0.86,-0.27,-0.12,41.23,45.39,-113.89
-1.51,-0.14,-0.33,63.14,69.56,-169.73
-0.1,0.98,0.31,104.92,-47.69,-247.01
-1.5,2,-1.72,105.24,-9.03,-197.82
0.31,2,-0.11,109.41,-25.21,-189.44
-0.2,1.84,-1.12,128.08,14.27,-146.93
-1.45,2,-0.72,126.77,-55.15,-176.4
-0.1,1.87,-0.33,71.5,-118.06,-129.85
0.03,1.38,-0.51,44.39,-78.22,-69.35
-0.6,1.48,-0.58,28.07,-13.17,-26.16
-1.34,1.85,-0.87,24.25,-2.02,-15.92
-0.9,1.89,-0.65,15.69,-13.53,-0.27
-0.4,1.5,-0.31,-1.24,14.18,37.4
-0.63,1.53,-0.26,-22.88,55.64,71.53
-0.97,1.89,-0.3,-60.49,63.65,95.38
-0.78,1.95,-0.39,-104.66,30.77,123.18
-0.42,1.58,-0.39,-131.57,22.06,169.08
-0.36,1.8,-0.44,-150.24,44.24,189.31
-0.82,2,-0.57,-164.5,70.26,193.66
-0.41,2,-1.04,-132.34,21.29,157.36
0.14,1.53,-0.99,-96.87,-13.27,131.66
0.08,0.17,-0.77,-54.57,-9.06,174.52
-0.23,0.16,0.37,-61,-15.1,174.37
-1.64,-0.02,0.95,-55.32,13.38,75.46
-1.95,-0.81,-1.23,62.44,-19.61,46.5
-0.13,0,-0.25,16.76,47.66,-49.51
0.6,0.14,0.22,-9.34,89.71,-74.99
0.5,0,0.2,-8.04,98.61,-73.87
-0.31,-0.17,-0.01,8.11,57.97,-44.27
-0.23,-0.01,-0.12,9.54,-61.73,9.53
0.33,0.08,-0.01,10.37,-117.01,38.3
0.29,0.01,0.06,11.27,-103.95,47.4
0.14,0.07,0.16,5.42,-75.08,38.35
0.05,0.04,0.2,-1.97,-40.87,22.97
-0.09,-0.02,0.21,-5.61,-4.5,4.77
-0.22,-0.08,0.12,-6.27,25.24,-15.14
-0.35,-0.06,0.02,-3.5,40.02,-30.92
-0.47,-0.08,-0.12,7.57,37.91,-48.87
-0.63,-0.05,0.17,40.87,38.6,-83.5
-2,-0.16,-1.66,60.74,127.87,-185.82
0.42,1.61,1.17,80.18,-92.5,-250.14
-1.06,2,-2,115.05,-28.18,-170.9
0.65,2,-0.35,98.48,-23.88,-191.01
-0.71,2,-1.01,128.45,7.09,-165.89
-1.53,2,-0.98,141.79,-68.6,-164.92
-0.55,1.57,-0.7,84.11,-151.21,-134.24
0.19,1.66,-0.51,58.13,-87.06,-84
-0.07,1.22,-0.2,43.83,-4.39,-19.99
-0.62,1.56,-0.44,38.19,32.06,14.23
-0.96,1.79,-0.57,14.4,3.75,45.82
-1.04,1.89,-0.39,-2.24,8.89,63.03
-0.68,1.66,-0.25,-28.54,41.69,74.94
-0.53,1.62,-0.26,-79.38,53.48,99.24
-0.62,1.62,-0.17,-128.86,27.65,154.35
-0.69,1.86,-0.55,-138.58,14.68,184.74
-1.22,2,-0.78,-141.93,23.39,175.94
-0.56,2,-0.84,-129.1,-7.29,156.15
0.5,1.72,-0.89,-108.24,-18.6,155.11
0.56,0.89,-0.74,-52.52,-21.7,196.37
-0.08,0.54,0.15,-73.21,-17.73,234.89
-0.38,0.09,0.96,-85.94,62.92,190.37
-2,-1.02,-0.89,35.68,131.77,46.8
-1.03,0.16,-0.67,-13.96,145.04,-77.31
-0.12,-0.11,0.64,2.32,86.95,-79.69
0.38,0.01,0.11,-5.17,20.36,-73.66
-0.14,-0.14,-0.05,9.74,-33.47,-41.36
-0.05,-0.05,-0.19,20.22,-111.08,9.51
0.59,0.1,-0.11,10.33,-138.75,42.66
0.62,0.06,0.08,6.8,-108.21,58.58
0.4,0.11,0.24,-2.26,-73.55,47.87
0.18,0.07,0.34,-9.38,-30.49,25.46
0.01,0.01,0.3,-10.31,12.27,4.55
-0.05,-0.01,0.16,-11.45,52.17,-14.05
-0.15,-0.1,0.05,-7.14,86.67,-37.34
-0.37,-0.12,-0.12,6.85,153.4,-68.16
-0.63,-0.1,-0.17,24.56,140.21,-91.93
-1.22,-0.24,0.28,66.18,132.02,-142.27
-1.55,1.48,-1.24,79.02,8.95,-206.45
-0.56,2,-0.84,110.63,-91.76,-173.61
-0.59,1.61,-0.26,134.22,-74.4,-147
-1.72,2,-1.06,184.81,-32.61,-226.19
-0.78,2,-0.34,182.3,-72.75,-217.87
0.53,1.11,-0.09,104.74,-95.42,-145.4
0.3,0.99,-0.23,70.95,-57.82,-64.57
-0.82,1.75,-0.34,61.57,-25.03,-30.95
-1.12,2,-0.39,30.75,-57.21,-11.66
-0.43,1.55,-0.42,3.25,-38.15,15.1
-0.54,1.47,-0.48,0.05,26.29,36.53
-0.91,1.67,-0.5,-8.92,55.29,56.53
-0.85,1.78,-0.39,-36.28,54.34,76.1
-0.52,1.71,-0.34,-85.13,32.2,99.42
-0.46,1.63,-0.22,-132.38,39.76,159.05
-0.87,1.91,-0.56,-153.22,67.68,176.12
-1.3,2,-0.84,-151.29,47.5,160.41
-0.52,2,-1.04,-133.01,-5.91,141.74
0.49,1.3,-0.79,-109.51,3.94,147.24
0.22,0.59,-0.52,-75.65,2.43,163.9
-0.57,0.4,0.44,-91.3,-74.68,166.69
-0.89,-0.17,0.65,-42.72,-39.55,121.73
-1.37,-0.58,-0.49,62.83,79.7,29.72
-0.31,0.23,-0.81,14.95,94.73,-38.03
0.26,0.11,0.29,-39.05,129.89,-47.82
-0.03,-0.2,0.17,-11.07,133.41,-44.18
-0.47,-0.2,-0.15,4.22,56.87,-35.21
-0.56,-0.1,-0.06,13.49,-44.33,0.06
0.02,0.06,-0.01,12.95,-104.78,17.52
0.26,-0.01,0.02,8.72,-114.59,28.92
0.29,0.03,0.05,8.56,-100.55,23.3
0.26,0.07,0.11,4.96,-69.23,15.6
0.25,0.02,0.13,-1.07,-23.69,7.03
0.1,-0.02,0.13,-6.23,41.11,-2.6
-0.18,0.05,0.11,-14.39,65.79,-15.25
-0.39,-0.13,-0.09,3.99,82.49,-38.12
-0.83,-0.24,0.14,38.8,70.34,-70.39
-1.86,-0.35,-0.99,97.69,75.15,-136.76
-0.86,0.79,-0.52,135.5,-81.43,-209.04
-1.05,1.99,-1.6,167.5,-60.3,-214.21
-0.35,2,-0.33,119.08,-16.55,-214.75
0.1,1.66,-1.62,106.93,-1.89,-168.49
-1.1,2,-1.13,134.95,-32.55,-119.2
-0.5,1.84,-0.71,79.8,-114.36,-96.72
-0.1,1.84,-0.38,50.11,-140.79,-39.56
-0.18,1.3,-0.3,6.34,-46.57,-1.87
-0.81,1.46,-0.61,13.62,59.38,6.24
-1.38,1.87,-1.02,6.51,44.31,19.74
-0.77,1.66,-0.61,-2.87,-10.89,47.34
-0.42,1.36,-0.42,-24.31,3.73,81.27
-0.54,1.56,-0.48,-51.02,50.83,109.66
-0.8,2,-0.31,-100.07,52.89,144.14
-0.73,1.99,-0.38,-125.75,55.4,162.87
-0.98,2,-0.48,-131.96,45.08,148.53
-0.49,2,-0.73,-124.68,3.03,144.06
0.03,1.56,-0.79,-100.66,-15.2,142.55
0.15,0.94,-0.64,-80.53,-37.85,143.84
-0.21,0.24,0.04,-56.89,-89.11,150.21
-0.7,0,0.8,-52.53,-99.03,112.19
-1.81,-0.61,-0.01,8.43,-10.73,44.59
-0.61,-0.32,-1.11,60.91,34.4,-12.04
0.48,0.38,-0.2,-25.63,68.24,-53.95
0.77,0.16,0.39,-30.93,146.08,-51.85
-0.1,-0.15,0.08,-8.12,122.3,-51.02
-0.56,-0.12,0.02,17.05,35.32,-30.53
0.19,0.17,-0.01,4.74,-40.82,-0.65
0.49,0.08,0.07,-4.92,-63.69,27.14
0.29,-0.03,0.07,-4.94,-63.12,37.98
0.14,0.06,0.11,-5.11,-41.54,32.25
0.13,0.05,0.14,-11.1,-3.8,25.03
-0.03,-0.02,0.11,-14.51,26.08,15.99
-0.42,-0.12,0.04,-11.29,35.82,-1.14
-0.61,-0.18,-0.17,14.98,39.44,-37.62
-0.77,-0.21,0.09,45.47,39.02,-82.82
-2,-0.26,-1.31,88.8,73.32,-160.16
0.13,1.35,0.12,109.48,-130.56,-250.14
-1.73,2,-2,157.28,-27.89,-191.15
-0.49,2,-0.47,89.73,-4.65,-195.66
0.33,2,-0.62,90.75,-15.5,-209.76
-0.27,1.57,-0.52,93.95,-0.98,-154.06
-0.73,1.49,-0.79,59.18,-65.4,-115.53
-0.67,2,-0.53,38.51,-64.22,-75.1
-0.57,1.66,-0.52,2.96,-18.76,-43.83
-0.56,1.31,-0.44,-3.82,12.2,-14.11
-0.78,1.47,-0.62,-15.79,18.37,18.07
-0.99,1.57,-0.77,-20.09,3.76,51.99
-0.7,1.42,-0.55,-27.39,10.55,75.78
-0.28,1.27,-0.64,-47.33,53.69,95.66
-0.67,1.62,-0.47,-104.72,93.47,147.49
-1.07,2,-0.39,-130.67,80.21,169.86
-1.14,2,-0.63,-132.22,34.27,161.07
-0.59,2,-0.54,-121.69,-3.03,151.58
0.26,1.37,-0.65,-106.91,-17.02,156.77
0.21,0.93,-0.86,-77.94,-23.89,150.89
-0.53,0.49,-0.1,-47.94,-107.61,160.53
-0.76,-0.01,0.61,-54.71,-114.58,133.5
-2,-0.71,0.19,-3.71,-68.8,50.41
-0.5,-0.19,-0.76,49.4,-56.73,19.84
0.34,0.35,-0.25,-5.97,13.25,-30.77
0.82,0.14,0.36,-17.79,103.95,-33.07
0.24,-0.1,0.07,-11.98,125.5,-42.46
-0.36,-0.11,0.01,-12.82,85.02,-28.39
-0.3,0.01,0.04,-3.84,12.14,-14.2
0.1,0.1,0.08,-3.3,-35.82,3.31
0.26,0.07,0.08,-5.46,-49.04,15.74
0.26,0.07,0.06,-10.26,-35.95,19.33
0.12,0.01,0.05,-13.86,-0.73,15.92
-0.06,-0.01,-0.01,-16.74,25.3,9.05
-0.32,-0.09,0.02,-11.27,35.39,-5.82
-0.47,-0.21,-0.14,11.75,31.05,-31.74
-0.83,-0.26,0.15,51.13,34.55,-73.15
-2,-0.36,-1.23,80.37,57.46,-150.47
0.32,1.32,0.05,95.21,-141.31,-218.16
-0.46,2,-1.45,125.66,-10.98,-148.89
-0.19,2,-0.11,117.67,12.68,-142.48
-0.94,2,-0.71,127.43,20.22,-156.6
-1.62,1.9,-1.17,126.61,-35.36,-146.4
-1.24,1.86,-1.03,95.32,-138.98,-136.47
0.15,2,-0.78,78.53,-160.06,-119.98
0.42,1.5,-0.28,30.71,-86.63,-29.54
-0.2,0.9,-0.33,42.36,-2.29,9.63
-1.27,1.92,-0.63,33.98,25.53,20.73
-1.13,1.88,-0.62,12.13,-7.4,33.76
-0.61,1.45,-0.22,-8.88,16.13,58.7
-0.41,1.48,-0.03,-39.31,74.77,81.76
-0.7,1.74,-0.16,-103.92,73.86,116.63
-1.15,1.97,-0.45,-134.53,54.87,138.93
-1.02,1.94,-0.71,-138.8,35.7,137.38
-0.62,1.87,-0.81,-140.94,40.89,132.95
-0.18,1.97,-0.74,-138.18,42.73,137.89
0.12,1.6,-0.75,-120.38,20.31,149.58
0.02,1.13,-0.63,-88.02,-16.34,148.22
-0.22,0.23,0.3,-66.45,-65.85,155.81
-0.75,-0.26,0.68,-57.15,10.2,106.8
-1.86,-0.72,-0.72,40,53.92,49.38
-0.36,0.27,-0.84,21.82,35.66,-0.57
0.36,0.17,0.47,-26.47,47.2,-1.83
0.22,-0.11,0.22,-8.32,75.91,-25.81
-0.15,-0.22,-0.11,3.66,33.87,-19.96
-0.23,-0.05,0.02,-1.08,-5.97,0.41
0.05,0.1,0,0.28,-31.04,11.63
0.17,0.03,0.01,-1.85,-42.45,21.22
0.13,0,0.07,-1.66,-37.11,20.92
0.07,0.02,0.11,-2.87,-22.55,14.54
0.1,0,0.11,-5.54,11.63,3.79
0,0.03,0.04,-7.68,57.01,-6.79
-0.28,-0.02,0.08,-11.11,72.11,-22.22
-0.45,-0.12,-0.03,-1.89,62.63,-42.54
-0.57,-0.15,-0.22,21.18,53.47,-66.1
-1.19,-0.01,-0.03,25.56,56.16,-123.43
-1.39,0,-0.36,78.04,6.5,-195.17
-0.51,2,-0.21,133.81,-37.33,-250.14
-0.66,2,-1.73,149.91,-81.56,-212.08
0.59,2,-0.89,149.27,-22.88,-213.83
-1,2,-0.17,128.48,-17.34,-154.42
-0.42,1.76,-0.75,92.48,-86.34,-105.55
-0.13,1.57,0.09,55.14,-101.47,-96.85
-0.23,1.84,-0.31,14.26,-19.54,-32.41
-0.97,1.4,-0.56,3.48,13,-9.62
-1.32,1.67,-0.86,10.66,28.13,-8.12
-1.02,1.72,-0.63,-7.69,3.24,22.06
-0.51,1.26,-0.47,-18.92,9.89,59.25
-0.69,1.5,-0.42,-17.56,31.34,87.69
-0.82,1.84,-0.47,-47.92,25.08,103.99
-0.83,1.95,-0.36,-105.83,22.87,132.57
-0.7,1.91,-0.11,-141.37,22.74,171.39
-0.76,2,-0.36,-154.62,39.89,155.17
-0.35,2,-0.63,-152.26,41.12,142.11
0.47,1.65,-1.29,-133.94,39.34,125.21
0.32,0.94,-1.5,-73.76,52.27,160.52
-0.36,0.42,-0.24,-57.86,26.19,217.73
-1.13,-0.02,1.5,-94.18,-26.82,151.76
-2,-1.14,-0.16,52.95,-116.44,56.92
-0.01,-0.05,-1.08,29.41,17.51,-3.66
0.62,0.27,0.16,-9.95,82.16,-36.22
0.51,0.04,0.32,-1.85,102.92,-54.02
-0.36,-0.1,0,-10.17,37.21,-21.19
-0.61,-0.1,0.03,-3.25,-59.85,11.05
0.24,0.08,-0.03,2.39,-131.38,24.73
0.51,0.08,0.01,-1.22,-109.23,41.29
0.38,0.12,0.1,-8.27,-57.21,41.27
0.2,0.11,0.17,-17.38,-8.66,31.74
0.05,-0.02,0.18,-19.33,29.55,17.09
-0.03,-0.04,0.04,-17.8,67.97,-0.28
-0.22,-0.02,0.01,-16.31,95.47,-19.75
-0.41,-0.13,-0.02,-7.05,88.77,-38.98
-0.53,-0.18,-0.08,11.27,63.63,-61.59
-1.18,-0.15,-0.14,24.53,81.23,-115.74
-1.94,-0.32,-0.29,85.26,-32.31,-174.63
0.28,1.45,-0.14,157.87,-63.94,-206.31
-1.55,2,-2,158.47,-111.38,-172.02
-0.85,2,-1.05,199.19,-125.19,-171.62
0.04,2,-0.39,202.22,-111,-225.39
0.19,2,-0.96,130.08,-64.69,-116.63
0.46,1.32,-0.21,96.07,-104.02,-98.11
-0.04,1.59,-0.16,36.3,-105.53,-26.75
-0.63,1.42,-0.41,12.89,-66.22,19.3
-1.17,1.67,-0.85,14.06,20.06,12.78
-1.32,1.65,-0.71,24.11,74.84,-22.94
-0.54,1.32,-0.28,-6.04,51.39,16.44
-0.62,1.28,-0.22,-35.92,45.01,72.83
-1.01,1.46,-0.35,-60.4,22.11,109.39
-0.82,1.71,-0.5,-94.24,24.66,118.04
-0.63,1.86,-0.4,-141.86,70.49,151.95
-0.62,2,-0.44,-155.91,107.5,136.8
-0.81,2,-0.53,-157.21,82.11,132.6
-0.23,1.96,-0.68,-139.24,10.31,137.72
0.44,1.22,-0.88,-98.69,-34.94,167.49
0.35,0.74,-0.78,-47.05,-56.86,182.59
0.1,0.78,0,-59.15,15.66,194.89
-0.37,0.25,1.07,-101.75,152.68,152.49
-2,-0.84,-1.33,31.63,144.97,52.05
-1.55,-0.58,-0.3,2.01,114.51,-46.84
-0.2,0.1,0.47,12.76,56.3,-73.55
0.24,0.23,0.09,-1.79,46.54,-88.15
-0.15,0.02,-0.04,-2.18,-14.4,-66.44
0,-0.05,0.07,13.15,-84.75,-24.23
0.55,0.14,-0.15,8.32,-122.44,3.99
0.54,0.05,0.06,-0.99,-93.52,32.09
0.34,0.09,0.18,-12.33,-75.87,33.96
0.2,0.04,0.24,-20.03,-30.58,22.47
-0.01,0.01,0.11,-22.02,14.05,5.68
-0.18,-0.04,0.05,-20.21,60.61,-14.73
-0.38,-0.07,0.01,-20.66,80.34,-38.47
-0.72,-0.18,-0.08,11.05,89.32,-81.21
-0.91,-0.22,-0.17,47.04,87.64,-131.39
-2,-0.39,-2,120.15,54.9,-212.12
0.99,1.63,1.04,114.21,-173.76,-250.14
-2,2,-2,130.97,63.24,-136.57
-1.76,2,-0.56,180.52,-11.52,-250.14
0.02,2,-0.9,148.28,-46.29,-247.23
0.27,0.95,-0.15,73.86,-120.85,-151.26
0.99,0.41,-0.16,31.15,-163.92,-71.44
0.07,0.94,-0.25,53.32,-50.79,37.24
-0.85,2,-0.7,41.97,8.18,13.66
-1.63,1.7,-0.93,9.05,14.82,9.23
-1.63,1.54,-0.81,30.69,24.6,-2.44
-0.59,1.23,-0.3,12.44,15.38,28.98
-0.35,1.13,-0.27,-10.96,10.19,81.47
-0.69,1.6,-0.23,-38.97,18.48,108.76
-0.78,1.91,-0.28,-87.67,9.51,117.74
-0.44,1.88,-0.17,-142.6,34.97,154.82
-0.4,1.92,-0.47,-179.98,83.46,183.54
-1.13,2,-1,-173.08,62.99,159.31
-0.92,2,-1.22,-130.28,-38.68,139.37
0.03,1.54,-1.17,-96.58,-64.59,148.34
0.8,0.79,-0.63,-56.57,-16.52,170.27
0.19,0.41,-0.03,-67.33,72.37,199.96
-0.53,0.33,1.17,-99.16,58.83,173.62
-2,-0.84,-0.17,33.95,-7.31,71.11
-0.35,-0.42,-0.92,35.72,86.92,-18.24
0.31,0.23,0.14,-14.92,140.34,-52.09
0.26,0.07,0.26,-5.15,156.65,-88.34
-0.44,-0.09,-0.13,-10.87,73.2,-55.44
-0.8,-0.16,-0.07,3.03,-55.43,-11.03
-0.12,-0.01,-0.06,21.25,-151.6,12.85
0.36,0.06,-0.02,20.4,-147.6,26.39
0.48,0.14,0.05,13.37,-102.56,22.73
0.15,0.09,0.02,-0.38,-38.2,11.26
-0.06,-0.04,0.02,-1.38,-2.88,-8.07
-0.24,-0.11,0.03,6.6,10.98,-27.24
-0.27,-0.1,-0.03,13.94,20.24,-46.66
-0.33,-0.05,0.05,17.59,38.88,-72.4
-1.74,-0.42,-0.17,70.5,76.22,-126.43
0.65,0.75,0.24,110.83,-39.01,-184.14
-0.32,2,-0.79,75.84,40.08,-119.87
-1.05,2,-0.71,118.99,-101.37,-103.69
-0.56,0.41,-1.28,-15.79,-91.1,-91.82
0.59,0.4,0.39,-39.66,-73.37,-79.94
0.77,-0.1,0.74,1.29,24.73,-68.43
0.23,-0.22,0.09,61.02,4.89,-94.63
0.05,0.12,-0.6,11.63,-61.44,-40.53
0.32,0.2,0.08,-19.37,-8.43,-0.02
0.5,0.03,0.06,-15.51,-42.56,22.14
0.33,-0.14,0.12,-3.29,-35.68,21.79
0.12,0.04,0.1,0.55,-2.11,27.33
0.17,0.05,0.1,-3.09,24.34,24.16
0.1,0.02,0.06,-9.81,35.49,13.33
-0.12,0.01,0.17,-6.43,7.69,8.42
-0.19,0,0.19,4.14,-30.23,8.64
-0.11,0.05,0.06,5.64,-28.71,8.63
-0.11,0.04,0,-1.98,-8.48,5.97
-0.22,-0.08,-0.07,1.53,14.22,-13.21
-0.4,-0.13,-0.12,22.15,27.54,-43.81
-0.44,-0.08,-0.15,34.08,39.34,-79.9
-2,-0.28,-0.88,85.35,107.2,-159.16
0.54,1.63,1.16,132.37,-56.71,-250.14
-0.95,2,-2,53.21,-92.33,-102.88
-0.75,2,-1.75,116.82,-33.31,-164.57
-0.09,2,-0.93,136.1,7.77,-213.17
-1.3,2,-0.75,118.3,-3.07,-147.8
-0.5,1.85,-0.32,93.62,-122.95,-121.02
-0.12,1.55,-0.5,45.14,-143.62,-92.92
-0.32,1.72,-0.47,17.59,-64.07,-50.2
-0.84,1.27,-0.58,9.15,-12.36,-11.57
-0.91,1.06,-0.68,26.08,9.33,-6.45
-0.89,1.25,-0.57,14.65,-7.68,15.34
-0.64,1.36,-0.29,-5.44,8.31,48.51
-0.54,1.36,-0.32,-21.6,60.92,74.86
-0.83,1.37,-0.5,-46.44,66.4,100.36
-0.72,1.66,-0.53,-86.99,39.63,133.5
-0.49,1.84,-0.47,-128.95,41.8,182.95
-0.57,2,-0.67,-142.01,62.29,211.02
-1.19,2,-0.59,-154.29,65.57,199.76
-0.23,2,-0.68,-155.85,-2.68,186.34
0.47,2,-0.84,-118.44,-37.24,199.92
0.36,1.13,-0.46,-80.08,-2.6,201.66
-1.2,0.01,0.66,-65.47,64.16,222.27
-2,-0.94,-0.58,9.19,105.27,60.6
-0.57,-0.04,-0.93,18.65,35.17,-60.4
0.27,0.34,0.39,-12.48,39.05,-101.53
-0.01,-0.11,0.05,-8.42,19.47,-90.33
-0.35,-0.25,0.06,35.62,-21.11,-89.73
-0.18,0.11,-0.14,42.43,-134.59,-53
0.71,0.34,-0.39,13.84,-179.04,13.84
0.87,0.06,0.05,-6.95,-103.24,46.57
0.63,-0.16,0.12,-8.16,-75.55,41.05
0.36,0.04,0.23,-6.31,-26.21,36.97
-0.03,0.09,0.31,-9.05,21.74,27.59
-0.11,0.04,0.22,-11.09,24.43,16.69
-0.08,-0.01,0.12,-4.79,4.74,2.27
-0.11,-0.04,0.08,3.34,-1.36,-9.6
-0.09,-0.01,-0.06,8.23,20.24,-16.69
-0.16,0.03,-0.02,2.86,64.44,-24.21
-0.24,0.01,0,-7.76,96.95,-36.57
-0.49,-0.14,-0.17,4.41,93.84,-60.34
-0.84,-0.21,-0.26,46.18,62.53,-102.14
-2,-0.39,-0.58,128.09,-25.69,-157.3
0.48,0.91,0.99,87.36,-112.85,-250.14
-0.13,2,-1.45,88.09,-35.58,-76.87
-0.46,2,-0.78,109.42,94.93,-119.53
-2,2,0.35,183.66,42.59,-250.14
-1.89,2,-0.81,142.24,-134.76,-230.5
0.65,1.85,-0.59,60.45,-119.8,-188.31
1.21,0.87,-0.11,10.11,-42.5,-85.15
-0.7,1.08,-0.71,-2.64,-6.73,1.9
-2,2,-0.64,10.59,-45.08,-43.26
-0.82,1.75,-0.73,-18.33,-81.8,-25.95
-0.03,1.05,-0.5,-15.94,-11.03,3.37
-0.19,1.02,-0.38,7.95,83.02,35.65
-0.9,1.62,-0.64,-3.77,99.41,74.75
-1.13,1.71,-0.64,-26.22,47.55,84.91
-0.78,1.52,-0.57,-59.15,22.6,103.32
-0.48,1.59,-0.3,-113.8,54.49,174.17
-0.43,2,-0.3,-135.66,88.25,210.89
-1.14,2,-0.72,-139.61,104.14,186.54
-1.02,2,-0.43,-141.11,10.43,166.82
0.29,1.83,-0.69,-135.03,-34.9,197.61
0.93,1.24,-0.8,-98.81,-21.52,188.22
-0.58,0.54,0.25,-80.32,-22.74,176.1
-1.97,-0.58,0.53,-24.71,117.57,139.67
-1.71,-1.38,-1.5,67.6,67.61,23.7
-0.27,0.42,-0.01,8.27,62.97,-87.66
0.34,0.55,0.37,-42.99,77.44,-97.97
-0.04,-0.15,0.28,-9.95,66.63,-66.32
-0.6,-0.51,0.14,50.73,6.62,-63.75
0.12,0.12,-0.32,28.08,-97.17,-39.69
0.64,0.21,-0.09,-4.27,-79.69,4.73
0.53,-0.05,-0.01,-3.39,-72.82,26.05
0.43,-0.01,0.07,4.02,-86.59,36.6
0.24,0.11,0.16,1.87,-54.72,36.83
0.1,0.03,0.19,-5.56,-15.27,31.63
0.09,0.01,0.17,-11.89,-1.97,21.1
-0.04,0.01,0.18,-11.21,-3.6,7.97
-0.14,0,0.16,-3.63,4.53,-0.63
-0.21,0.04,0.08,-4.98,26.82,-7.35
-0.26,-0.01,-0.07,-3.21,54.11,-19.98
-0.28,-0.08,-0.2,7.75,75.75,-38
-0.92,-0.17,0.48,38.31,79.49,-76.03
-2,-0.26,-1.63,97.4,80.85,-154.44
0.34,1.41,0.59,98.27,-105.95,-250.14
-1.31,2,-2,87.11,-48.44,-77.82
-0.67,1.92,-2,159.43,-99.18,-179.49
-1.86,2,-0.55,183.89,-32.35,-250.14
-1.43,2,-0.92,147.26,-72.91,-169.77
0.19,2,-0.17,120.93,-148.63,-160.6
0.79,1.56,0.32,46.67,-102.82,-83.76
-0.23,1.07,0.06,-0.6,-58.23,-7.04
-1.29,1.83,-0.63,-12.23,-12.92,-9.05
-1.61,2,-0.52,-11.17,17.4,-42.52
-0.79,1.27,-0.53,-26.6,12.74,-10.86
-0.35,0.89,-0.55,-34.6,10.69,33.21
-0.62,1.03,-0.48,-20.39,28.24,74.62
-0.82,1.46,-0.63,-17.69,48.56,94.21
-0.75,1.85,-0.65,-43.53,67.92,101.29
-0.67,1.75,-0.54,-126.76,87.75,166.98
-0.69,1.83,-0.21,-142.47,77.76,229.24
-1.23,2,-0.4,-154.56,66.08,201.6
-0.76,2,-0.84,-145.23,-5.28,195.03
0.15,2,-1.03,-126.57,-6.39,209.47
0.27,0.83,-0.7,-89.92,-13.32,214.67
-0.92,0.71,0.82,-111.49,-64.82,182.62
-2,-0.23,1.03,-40.06,9.34,121.69
-1.69,-1.25,-1.92,116.91,-70.47,30.24
0.24,0.36,-0.35,-34.76,-20.53,-88.27
1.18,0.46,0.47,-37.03,41.92,-110.86
0.55,-0.21,0.62,-6.11,144.53,-113.76
-0.38,-0.11,0.02,47.82,129.26,-101.69
0.1,0.32,-0.55,-8.15,-20.69,-28.66
0.44,0.11,0.06,-27.45,-18.55,13.02
0.44,-0.1,0.07,-9.3,-69.66,21.04
0.3,-0.06,0.06,6.65,-91.5,27.24
0.2,0.1,0.03,2.05,-54.53,33.47
0.41,0.03,0.1,-2.66,14.9,30.2
0.38,0.06,0.02,-9.14,53.47,18.82
0.18,0.07,0.11,-15.09,62.56,14.15
0,0,0.18,-13.57,49.07,20.47
-0.14,-0.04,0.1,-8.31,47.57,17.48
-0.5,-0.01,-0.07,-4.26,64.87,0.76
-0.88,-0.18,-0.24,15.08,66.22,-34.81
-0.97,-0.15,-0.2,43.03,23.78,-88.07
-1.62,-0.02,0.09,86.15,49.31,-162.54
-0.3,1.67,-0.78,108.69,-57.03,-249.05
-0.4,2,-1.1,133.18,-59.18,-157.05
0.54,1.97,-0.12,142.79,-35.84,-208.37
-0.51,2,-0.14,176.9,1.04,-177.52
-0.46,2,-0.42,110.76,-7.71,-167.69
-0.61,1.79,-0.07,101.82,-54.73,-156.53
-0.57,1.56,-0.19,64.44,-42.75,-119.34
-0.86,1.58,-0.32,18.95,-43.48,-72.99
-0.89,1.34,-0.56,-10.78,-73.56,-31.06
-0.71,1.05,-0.73,-13.05,-42.45,-0.47
-0.85,1.31,-0.75,0.02,-5.5,13.85
-0.73,1.33,-0.65,0.22,11.12,40.4
-0.5,1.27,-0.44,-1.51,36.37,65.29
-0.43,1.48,-0.36,-9.89,72.51,86.73
-0.65,1.8,-0.54,-58.76,65.24,124.03
-0.81,1.82,-0.44,-123.6,31.6,186.36
-0.75,2,-0.41,-142.23,17.24,217.53
-1.13,2,-0.54,-156.89,40.31,211.61
-0.57,2,-0.66,-145.84,18.17,183.99
0.42,1.93,-0.7,-130.01,21.08,173.39
0.49,1.05,-0.93,-92.71,9.83,180.76
-0.48,0.47,0.34,-104.72,36.29,166.56
-1.79,-0.25,0.91,-77.29,98.85,140.98
-2,-1.16,-2,110.81,-25.92,61.95
-0.49,0.23,-0.26,-15.19,-9.93,-54.2
0.66,0.33,0.56,-25.05,21.15,-62.82
0.66,0.03,0.26,-17.6,67.51,-68.95
-0.05,-0.38,0.08,31.27,62.94,-67.01
0.13,0.07,-0.2,13.67,-25.29,-23.07
0.39,0.22,-0.02,-18.38,-34.65,43.06
0.19,0,0.08,-17.08,-38.82,52.06
0.09,-0.09,0.11,-11.83,-63.69,39.36
-0.05,0.04,0.21,-5.11,-57.76,24.5
-0.12,0,0.21,-2.35,-42.24,16.24
0.07,0.01,0.06,-2.56,-7.92,0.21
0.13,0.01,0.01,-5.08,29.99,-19.02
0.01,-0.04,0.03,-4.33,56.95,-34.43
-0.14,-0.03,0.05,-2.02,90.05,-39.98
-0.49,-0.01,-0.03,1.2,86.44,-45.97
-0.61,-0.14,-0.19,16.89,62.15,-64.09
-1.24,-0.04,0.1,54.95,28.64,-100.27
-1.83,0.4,-0.39,96.21,-63.1,-197.71
0.4,2,-0.37,133.89,-150.05,-234.74
0,2,-0.81,78.6,45.41,-81.4
-0.8,2,-2,111.85,2.85,-237.18
-1.92,2,-1.35,149.36,-82.38,-250.14
-0.82,2,-1.71,118.37,-81.76,-153.63
0.13,1.7,-0.14,95.59,-94.65,-126.85
0.35,1.3,-0.07,37.88,-49.21,-96.95
-0.64,1.04,-0.37,15.63,-33.31,-17.88
-1.34,1.56,-0.67,1.63,-54.85,-0.22
-1.31,1.61,-0.8,2.47,-55.74,5.41
-0.6,1.1,-0.58,5.4,-11.62,18.6
-0.29,1.07,-0.4,3.81,58.25,51.59
-0.61,1.33,-0.65,-4.83,102.87,96.08
-1.18,1.69,-0.67,-38.54,79.97,118.13
-0.96,1.82,-0.5,-83.09,4.78,143.11
-0.47,1.73,-0.25,-124.77,20.27,204.91
-0.61,2,-0.58,-135.02,77.75,220.42
-1.18,2,-0.86,-123.74,38.81,201.05
-0.69,2,-0.54,-117.61,-40.59,171.02
0.39,1.28,-0.41,-100.6,-34.82,197.73
0.41,0.79,0,-80.18,-44.44,168.14
-1.13,0.34,0.75,-65.12,-64.47,152.31
-2,-0.88,0.33,28.92,53.54,94
-0.24,-0.47,-1.86,44.48,53.89,-34.09
1.02,0.32,0.11,-38.49,103.92,-49.05
0.42,0.32,0.27,-44.52,220.02,-80.15
-0.64,-0.24,-0.06,-13.24,178.05,-75.38
-1.14,-0.42,-0.04,27.87,-7.06,-38.81
0.07,0.08,-0.09,23.92,-141.7,-1.22
0.58,0.17,-0.01,10.01,-141.17,30.21
0.43,0.05,0.06,-1.61,-108.18,26.69
0.17,0.01,0.11,-6.92,-71.53,16.24
0.15,0.03,0.16,-11.72,-22.93,6.44
0.13,0.01,0.15,-9.53,6.56,-2.45
-0.01,-0.04,0.16,-7.35,9.05,-12.02
-0.11,-0.05,0.12,-3.42,5.15,-20.76
-0.05,0.01,0.09,-1.98,37.62,-28.37
-0.16,0.06,0,-7.04,64.22,-34.56
-0.33,-0.11,-0.16,8.94,75.82,-51.03
-0.8,0.05,-0.05,27.87,52.89,-83.54
-2,-0.58,-1.39,121.11,-11.73,-149.94
0.31,1.63,-0.24,131.84,-218.38,-250.14
-0.67,2,-1.62,70.12,19.17,-92.92
-0.85,1.78,-2,146.59,-22.79,-146.92
-2,2,-1.05,166.45,-4.48,-250.14
-0.82,2,-0.3,134.91,-23.06,-178.31
0.88,1.65,0.3,76.55,-93.95,-153.22
0.61,0.86,0.1,25.5,-40.24,-75.07
-0.79,0.9,-0.37,-12.55,-57.46,10.96
-1.64,1.67,-0.76,-11.53,-91.58,-12.05
-1.11,1.56,-0.96,-7.5,-65.02,-10.63
-0.32,0.75,-0.63,-3.85,4.93,16.24
-0.3,0.57,-0.39,13.86,67.73,48.92
-0.58,1.4,-0.56,7.29,100.92,83.92
-1.04,1.94,-0.39,-44.59,53.97,115.17
-0.85,1.61,-0.32,-92.54,12.37,141.89
-0.66,1.69,-0.19,-119.22,7.78,186.69
-0.83,2,-0.53,-145.76,54.66,212.34
-1.17,2,-0.62,-151.87,53.01,175.92
-0.17,2,-0.82,-136.91,-13.19,148
0.81,1.72,-0.82,-100.37,-42.57,180.4
0.57,0.58,-0.37,-73.11,41.86,212.24
-0.48,-0.1,0.78,-83.3,62.2,188.95
-2,-0.76,-0.26,14.15,60.08,64.08
-0.26,-0.19,-1.12,46.06,38.53,-18.9
0.66,0.34,0.36,-7.79,130.23,-29.53
0.18,-0.04,-0.03,-24.31,142.55,-70.44
-0.6,-0.36,0.15,0.15,100.63,-68.31
-0.83,-0.09,-0.04,19.85,-15.46,-33.25
0.05,0.08,-0.1,14.68,-117.96,9.81
0.49,0.1,-0.02,8.6,-123.73,35.55
0.39,0.06,0.01,3.91,-94.97,32.8
0.17,0.04,0.08,-3.95,-43.25,28.42
0.11,0.02,0.1,-8.17,1.69,13.82
0.02,-0.04,0.1,-6.05,20.69,-1.38
-0.05,-0.05,0.12,-2.21,18.37,-10.08
-0.01,0.04,0.1,1.35,21.03,-12.71
0.05,0.1,0.07,-3.02,37.24,-13.88
0,0.01,0,-6.2,55.64,-17.89
-0.23,-0.1,-0.06,-0.15,57.67,-32.01
-1.12,-0.07,0.12,6.76,79.57,-82.11
-2,-0.2,0.27,81.62,-58.4,-133.34
0.17,1.81,-0.65,113.48,-88.33,-229.77
-0.54,2,-0.08,54.74,131.44,-177.5
-1.49,2,0.09,116.58,19.61,-170.38
-0.88,2,-0.73,128.78,-68.72,-155.17
-0.99,2,-0.14,128.97,-30.41,-146.25
-0.14,1.94,0.26,79.87,-15.64,-121.93
0.13,1.55,-0.19,31.76,-69.48,-91.01
-0.37,1.14,-0.55,-4.73,-97.24,-6.6
-0.7,1.76,-0.53,20.79,-82.63,17.12
-0.56,1.98,-0.45,9.08,-14.24,-1.46
-0.52,1.58,-0.38,-3.64,67.99,9.96
-0.67,1.36,-0.38,-17.19,70.08,35.9
-0.74,1.42,-0.53,-35.57,38.97,61.85
-0.88,1.46,-0.63,-54.71,-0.2,107.95
-0.89,1.84,-0.47,-75.69,-21.16,137.16
-0.83,2,-0.37,-98.86,-14.83,168.29
-0.81,2,-0.4,-117.41,26.99,176.98
-0.39,2,-0.74,-115.83,20.76,153.44
0,1.71,-1,-96.57,43.89,164.17
-0.11,0.92,-0.58,-94.25,42.31,156.53
-0.63,0.31,0.54,-78.02,-67.35,147.87
-1.64,-0.18,1.06,-69.85,-121.11,78.82
-2,-0.99,-0.77,74.89,-106.34,58.44
0.31,0.09,-1.04,44.47,-74.83,-5.44
0.91,0.32,0.19,-12.27,22.91,-10.15
0.43,-0.01,0.53,-20.69,124.86,-56.77
-0.38,-0.31,0.16,8.5,125.53,-65.05
-0.52,0.02,0.03,33.85,30.66,-46.14
0.2,0.32,0.01,15.05,-31.15,-23.14
0.6,0.19,-0.08,-5.94,-43.85,9.79
0.31,-0.1,0.06,-6.24,-45.37,15.18
0.11,-0.03,0.09,1.86,-45.65,17.34
0.15,0,0.07,3.08,-29.53,11.51
0.24,-0.01,0.01,-3.44,16.19,4.88
0.17,0.02,0.04,-9.92,61.51,-2.17
-0.22,0,0.19,-14.69,102.43,-13.89
-0.92,-0.18,-0.02,14.92,91.59,-34.24
-1.11,-0.21,-0.18,35.24,51.28,-94.04
-1.55,-0.22,-0.32,74.18,83.81,-164.08
-0.25,0.8,0.09,126.95,42.18,-241.76
-0.51,2,-1.21,113.6,-1.65,-187.1
-0.51,2,0.1,119.08,67.02,-173.31
-1.32,1.92,-1.24,149.33,-20.44,-160.37
-1.85,2,-0.5,141.16,-126.46,-150.28
-0.57,2,-0.2,99.14,-156.31,-127.34
0.59,1.41,-0.05,41.4,-104.34,-111.24
-0.2,0.9,-0.29,-0.79,-27.11,-53.89
-1.53,1,-0.86,8.45,-35.56,-26.06
-1.34,1.3,-1.07,25.89,-75.61,-10.44
-0.46,1.3,-0.8,31.7,-50.6,22.05
0.01,1.25,-0.43,35.22,38.36,58.13
-0.38,1.4,-0.37,27.09,107.11,88.84
-1.07,1.95,-0.37,-21.78,97.18,109.53
-1.18,1.93,-0.24,-79.16,33.44,145.62
-0.71,1.65,-0.2,-115.55,8.72,175.25
-0.44,1.94,-0.43,-130.87,20.24,196.16
-0.67,2,-0.72,-143.18,61.84,196.37
-0.59,2,-0.43,-151.23,53.63,189.2
0.2,2,-0.76,-126.3,21.59,200.12
0.12,1.04,-0.56,-104.08,-20.28,185.53
0.08,0.5,0.26,-68.23,-67.75,137.11
-1.39,-0.14,0.84,-63.81,105.35,165.21
-2,-0.82,-2,102.62,-10.97,70.02
-0.25,0.21,-0.31,-30.29,35.87,-48.28
0.57,0.24,0.56,-30.39,117.94,-75.76
0.26,-0.11,0.22,-18.37,144.84,-86.02
-0.49,-0.27,-0.1,16.27,89.89,-79
-0.29,0.01,-0.02,19.03,-39.55,-41.05
0.4,0.2,-0.06,3.23,-102.76,12.25
0.41,0,0.08,-1.12,-98.64,33.92
0.26,-0.04,0.09,-0.96,-105.82,30.98
0.25,0.07,0.14,-5.69,-71.22,22.29
0.23,0.06,0.14,-12.35,-8.71,9.92
0.18,0.03,0.07,-17.46,39.67,-2.76
0.01,-0.05,0.09,-17.34,60.3,-16.85
-0.25,-0.06,0.18,-13.69,68.02,-25.34
-0.43,-0.03,-0.04,-1.54,86.02,-35.42
-0.51,-0.04,-0.23,7.64,57.79,-44.1
-0.48,-0.06,-0.11,23.8,34.6,-73.15
-2,-0.44,-2,92.5,94.89,-153.04
0.32,1.25,0.15,129.72,-128.15,-235.55
-1.34,2,-2,145.98,-49.79,-143.43
0.06,2,-0.05,156.78,-48.71,-166.6
-0.08,2,-0.25,147.17,-62.94,-178.32
-0.46,2,-0.29,98.38,-37.36,-98.95
-0.61,1.56,-0.29,83.81,-93.76,-87.73
-0.78,2,-0.27,52.69,-107.98,-89.79
-0.61,1.7,-0.31,14.05,-37.93,-73.75
-0.26,1.32,-0.43,1.73,18.94,-44.72
-0.81,1.34,-0.68,-4.34,20.57,-10.76
-0.86,1.56,-0.71,0.16,-0.83,15.03
-0.68,1.64,-0.58,-11.07,11.44,33.24
-0.46,1.59,-0.48,-30.2,46.47,55.97
-0.45,1.69,-0.34,-73.15,81.75,92.05
-0.64,1.71,-0.32,-111.42,56.01,140.29
-0.51,1.78,-0.37,-123.2,11.57,163.82
-0.6,2,-0.44,-144.85,34.34,181.25
-0.72,2,-0.42,-166.98,83.88,174.64
-0.13,2,-0.98,-146.97,60.92,155.38
-0.18,1.62,-0.88,-115.87,26.28,140.77
0.06,0.39,-0.66,-70.47,-52.56,201.19
-0.68,0.06,0.27,-44.44,-14.37,172.22
-1.91,0.08,0.69,-53.93,118.76,141.72
-1.9,-0.62,-1.35,60.52,-74.49,20.97
0.26,0.1,0.32,24.55,78.18,-55.54
0.05,0.13,-0.16,-1.37,97.27,-74.08
-0.2,-0.03,0.07,-5.15,23.39,-75.47
-0.24,-0.22,0.16,21.91,-24.68,-32.17
0.29,-0.02,-0.12,23.79,-109.15,12.3
0.49,0.12,-0.05,5.56,-118.05,40.44
0.26,-0.05,0.01,7.52,-111.43,45.9
0.16,0.06,0.1,7.39,-93.39,41.69
0.12,0.08,0.2,-1.09,-56.04,27.14
0.12,-0.01,0.19,-2.93,-16.76,9.31
0.07,-0.04,0.13,-5.51,19.63,-11.92
-0.01,0,0.14,-9.88,57.11,-32.08
-0.19,0,0.06,-9.4,109,-52.18
-0.41,-0.1,-0.1,10.08,140.57,-70.35
-0.44,-0.13,-0.13,25.9,141.67,-103.18
-1.87,-0.38,-0.92,81.31,187.72,-174.63
-0.87,1.43,-0.6,122.76,-20.86,-248.34
-1.65,2,-1.72,143.6,-164.51,-192.66
-0.31,2,-0.18,122.48,-150.47,-155.1
0.06,1.88,-0.96,143.8,-85.11,-100.46
-0.55,2,-1.1,140.12,-39.96,-212.96
-0.9,2,-0.43,99.04,-16.63,-153.46
0,1.77,-0.05,56.27,-82.58,-137.4
-0.18,0.96,-0.24,7.03,-57.37,-52.17
-1.11,1.53,-0.58,0.93,-48.9,-0.96
-1.31,1.78,-0.75,-3.31,-55.15,-22.28
-0.55,1.4,-0.54,-3.99,-22.37,-6.11
-0.33,1.14,-0.4,-6.55,41.93,35.21
-0.61,1.24,-0.43,-12.38,75.83,63.84
-0.85,1.46,-0.58,-27.09,68.94,87.84
-0.84,1.66,-0.55,-51.92,34.02,110.05
-0.69,1.62,-0.41,-105.4,23.81,149
-0.7,1.68,-0.27,-136.02,26.65,198.76
-0.93,2,-0.64,-136.92,14.86,204.36
-0.85,2,-0.59,-134.56,22.69,175.02
0.21,2,-0.89,-116.89,11.52,157.79
0.51,1.13,-0.75,-96.79,50.14,186.12
0.04,0.36,-0.19,-92.54,31.07,178.19
-0.75,0.04,0.6,-83.07,46.23,161.69
-2,-0.46,0.17,-22.69,87.56,41.18
-1.4,-0.53,-1.46,78.03,-45.11,-6.67
-0.03,0.17,0.1,-15.05,-51.44,-34.25
0.72,0.2,0.2,-7.48,18.22,-66.04
0.45,-0.16,0.16,11.92,41.59,-80.47
0.07,-0.1,0.06,34.31,39.44,-74.64
0.21,0.26,-0.32,9.36,-24.97,-13.21
0.4,0.11,0.03,-13.56,-10.51,31.04
0.22,-0.05,-0.01,-11.63,-63.25,49.98
0.16,-0.07,0.14,-3.18,-83.82,42.93
0.07,0.03,0.18,2.82,-57.24,30.05
0.1,0.03,0.12,-0.14,-13.24,22.43
0.04,0.06,0.16,-13.77,48.27,11.86
-0.21,0.03,0.17,-20.84,95.37,-9.73
-0.59,-0.17,-0.05,2.21,123.39,-45.31
-0.84,-0.14,-0.17,17.34,100.27,-89.67
-1.16,-0.06,-0.09,41.22,86.02,-136.32
-1.34,-0.03,0.29,117.43,63.93,-191.06
0.26,1.51,-1.32,134.07,-107.4,-193.73
-1.31,2,-2,83.11,-67.15,-80.01
-1.96,2,-1.72,142.92,-109.73,-163.72
-1.3,2,-1.3,178.69,-117.83,-201.75
-0.82,2,-0.97,176.83,-98.34,-208.73
0.89,1.73,0.19,83.88,-51.73,-145.82
0.6,0.76,0.15,28.5,-28.83,-76.68
-1.04,0.64,-0.44,1.02,-54.34,20.81
-1.95,1.71,-0.98,23.16,-78.11,-1.5
-1.12,2,-0.65,21.48,-51.5,-19.76
-0.2,1.26,-0.56,4.75,13.6,10.66
-0.27,0.97,-0.37,3.6,58.81,38.48
-0.83,1.48,-0.6,4.94,62.23,75.69
-1.17,1.92,-0.57,-13.02,19.24,83.48
-0.74,1.77,-0.35,-54.29,-6.45,97.03
-0.32,1.48,-0.31,-118.75,35.22,148.3
-0.5,1.69,-0.17,-138.02,59.19,218.06
-1.08,2,-0.67,-131.39,45.61,181.31
-1.25,2,-0.61,-126.68,5.3,166.56
-0.07,1.8,-0.41,-130.63,-4.69,166.69
0.8,1.4,-1.12,-114.42,49.03,182.42
0.13,1.23,-0.5,-118.18,31.63,170.2
-2,-0.09,1.16,-104.24,-14.97,123.05
-2,-1.24,-0.02,29.73,95.82,46.14
-0.35,-0.13,-1.56,57.79,16.21,-22.85
0.43,0.46,-0.01,-10.54,25.58,-71.52
0.21,0.19,0.43,-22.53,49.42,-55.88
-0.14,-0.41,0.23,16.75,23.79,-61.44
-0.15,-0.08,0.06,50.23,-32.27,-50.49
0.51,0.28,-0.3,6.05,-114.07,7.4
0.74,0.12,0.04,-3.18,-56.15,41.33
0.38,-0.11,0.05,-2.86,-47.38,42
0.16,0.01,0.2,1.92,-26.17,35.74
0,0.02,0.24,3.43,-7.35,25.17
-0.01,0.04,0.16,-2.79,7.44,15.53
0.09,0.02,0.1,-3.98,21.35,1.92
0,-0.01,0.08,-2.67,45.75,-14.27
-0.3,-0.02,0.15,-6.97,87.93,-28.82
-0.57,0.02,0.03,0.69,121.6,-44.29
-0.92,-0.16,-0.42,20.39,89.94,-72.47
-1.69,-0.26,-0.07,67.38,36.69,-129.17
-1.29,0.33,0.4,117.68,-43.17,-195.44
0.17,2,-1.18,133.06,-71.52,-211.56
-1.12,1.87,-0.62,127.97,17.34,-167.23
-1.26,1.75,-0.79,146.89,-16.34,-250.14
-2,2,-1.31,176.56,-160.42,-161.18
-0.02,1.98,-0.58,110.5,-114.76,-143.51
0.54,1.53,0.16,75.79,-58.73,-93.56
-0.45,1.04,-0.1,38.95,1.36,-63.2
-1.56,1.51,-0.48,19.79,-19.85,-49.76
-1.32,1.71,-0.81,6.18,-47.09,-13.66
-0.67,1.21,-0.64,-8.47,-47.4,22.77
-0.34,1.13,-0.38,2.9,6.35,39.39
-0.51,1.59,-0.46,-7.85,59.81,65.25
-0.8,1.63,-0.51,-38.98,76,88.73
-0.94,1.5,-0.58,-76.33,53.95,117.15
-0.95,1.42,-0.52,-102.27,12.54,162.95
-0.65,1.78,-0.43,-119.32,0.02,179.76
-0.38,2,-0.54,-134.92,36.49,193.26
-0.81,2,-0.59,-137.11,69.78,172.86
-0.49,2,-0.61,-119.5,-5.38,164.62
0.21,1.12,-0.63,-95.13,-58.03,167.98
0.09,0.38,-0.3,-68.34,-36.66,191.21
-0.32,0.17,0.38,-66.21,-17.64,132.98
-2,-0.3,0.68,-37.62,94.55,71.12
-1.6,-0.83,-1.24,60.53,-10.67,24.3
0.3,0.11,-0.13,1.34,33.51,-24.4
0.42,0.25,0.07,-19.73,109.91,-61.4
0.15,0.02,0.21,-13.9,108.69,-68.76
-0.37,-0.22,0.03,16.31,70.31,-62.78
-0.01,0.03,0.01,17.13,-23.76,-22.95
0.43,0.18,-0.05,-5.69,-73.36,21.92
0.21,0.02,0.03,-10.18,-81.92,38.67
0.09,-0.06,0.04,-3.7,-84.07,38.97
0.15,0.03,0.07,-4.19,-46.37,31.64
0.09,0.03,0.15,-13.01,0.72,19.32
-0.09,-0.01,0.19,-15.95,28.75,3.21
-0.33,-0.03,0.09,-16,33.81,-14.34
-0.5,-0.08,-0.01,0.39,24.11,-29.25
-0.4,-0.06,-0.04,17.89,17.76,-46.67
-1.16,-0.17,0.03,17.93,103.81,-115.41
-0.99,-0.12,0.31,123.53,-42.19,-173.3
0.57,1.5,-0.73,108.2,-28.71,-209.92
-0.39,2,-0.9,85.37,-36.56,-71.75
-1.23,2,-1.94,137.76,-68.45,-102.83
-2,2,-0.98,196.09,-77.56,-250.14
-0.82,2,-0.05,188.14,-143.63,-247.49
0.74,1.87,0.68,45.67,-28.24,-179.66
1.54,0.98,0.48,55.92,28.94,-51.12
-0.59,0.97,-0.44,16.02,4.89,20.6
-2,1.84,-0.92,1.98,-119.99,41.85
-1.46,2,-0.62,14.93,-84.77,-12.69
-0.14,1.37,-0.4,-22.42,64.47,3.31
0.06,0.71,0.01,-52.68,143.35,56.67
-0.86,1.36,-0.42,-84.15,136.24,113.97
-1.81,2,-0.61,-105,0.92,145.76
-1.02,1.79,-0.51,-101.84,-67.03,154.76
-0.26,1.76,-0.63,-133.82,34.73,188.98
-0.33,2,-0.52,-148.89,136.85,167.99
-0.63,2,-0.8,-128.64,68.63,158.27
-0.42,1.62,-0.91,-96.03,-56.57,176.95
-0.26,0.54,-0.32,-66.37,-122.85,179.99
0.25,0.32,0.16,-42.81,-148.4,107.6
-1.13,0.02,0.92,-51.23,-32.72,111.67
-2,-0.88,-0.73,61.25,-56.15,46.74
0.09,0.02,-0.8,15.04,-7.03,-43.15
0.61,0.37,0.31,-33.56,97.79,-43.58
0.35,0.02,0.18,-27.65,158.31,-78.68
-0.33,-0.33,-0.05,-1.84,126.05,-75.72
-0.36,-0.04,0.06,19.64,37.75,-52.63
0.21,0.23,-0.07,6.37,-51.21,-4.62
0.25,0.06,-0.02,-3.68,-67.57,20.64
0.21,-0.07,0.02,-3.08,-83.02,22.36
0.19,0.04,0.07,-3.56,-52.21,15.85
0.15,0.05,0.04,-8.15,-10.47,7.37
0.03,0.01,0.13,-10.31,21.39,-1.76
-0.26,-0.03,0.14,-10.3,28.82,-17.22
-0.48,-0.11,0.02,6.05,30.55,-32.53
-0.51,-0.11,-0.23,18.08,37.28,-53.52
-0.7,-0.08,0.18,40.41,39.63,-88.81
-1.64,-0.15,-0.67,78.18,7.72,-150.84
0.21,1.13,-0.14,127.66,-46.18,-222.77
-0.85,2,-1.38,114.61,-41.05,-192.2
-0.49,2,-0.86,122.93,-3.98,-112.1
-0.88,2,-0.11,126.68,1.16,-207.57
-1.73,2,-0.31,109.67,-49.89,-136.25
-0.54,1.6,0,58.94,-62.87,-144.3
0.39,1.5,-0.36,16.54,-51.74,-139.66
-0.27,1.23,-0.75,-19.92,-19.19,-45.7
-1.46,1.08,-0.71,-17.25,-9.11,40.94
-1.64,1.29,-0.9,6.63,-16.59,-6.55
-0.57,1.41,-0.72,-0.3,-38.78,14.18
-0.19,1.42,-0.4,-28.44,46.08,52.97
-0.2,1.49,-0.48,-57.23,126.79,85.85
-1.12,1.67,-0.39,-87.13,85.78,163.4
-1.28,1.98,-0.33,-106.19,-2.72,169.32
-0.99,2,-0.35,-127.71,-9.49,176.63
-0.85,2,-0.57,-144.11,45.28,178.58
-0.46,2,-0.91,-116.79,12.66,151.86
-0.04,1.88,-0.71,-91.44,-49.68,154.96
-0.01,0.34,-0.33,-76.64,-22.06,183.07
0.31,-0.24,0.53,-51.82,-66.27,143.25
-1.43,-0.07,0.26,-31.95,48.26,92.83
-1.96,-0.67,-0.95,40.13,14.85,42.11
-0.07,0.13,-0.28,1.47,5.07,-16.83
0.38,0.13,0.24,-26.69,70.43,-30.69
0.09,-0.13,0.19,-14.39,92.27,-56.03
-0.28,-0.2,0.09,1.76,72.43,-45.23
-0.19,-0.1,-0.06,17.61,-0.21,-28.98
0.25,0.13,-0.07,4.86,-52.76,4.31
0.22,0.06,0.08,-3.24,-64.46,31.23
0.08,0.03,0.08,1.41,-71.78,32.95
0.16,0.06,0.12,-2.77,-44.5,23.05
0.11,-0.02,0.09,-5.06,-12.64,12.83
-0.08,-0.02,0.13,-6.96,7.77,0.81
-0.17,0.01,0.15,-5.61,11.98,-10.98
-0.2,-0.01,0.04,1.65,23.33,-24.29
-0.25,-0.09,-0.06,12.79,34.88,-42.96
-0.66,0.07,0.1,19.83,88.6,-87.75
-1.87,-0.32,-0.95,72.54,7.57,-145.39
0.28,1.11,0.46,132.13,15.04,-213.11
-1.25,2,-1.82,93.74,-77.05,-160.89
-0.01,2,-1.17,112.33,-56.85,-64.6
-0.51,1.57,0.04,98.32,-38.6,-143.66
-2,2,-1.39,166.25,-97.29,-160.31
-0.91,2,0.02,97.6,-91.92,-136.58
0.95,1.79,0.53,35.4,-44.82,-137.27
0.46,0.62,-0.16,-21.73,23.81,-53.05
-1.25,0.96,-1,-14.45,-16.94,36.87
-1.91,2,-1.12,9.47,-71.6,-3.02
-0.2,0.16,-0.42,7.82,7.2,-57.14
0.16,-0.01,0.32,-0.76,36.37,-49.66
-0.29,-0.19,0.05,13.15,9.61,-38.59
0.19,-0.03,0.26,57.15,-33.15,-41.21
0.8,0.25,-0.34,-7.27,-80.14,5.88
0.36,0.15,0.04,-17.15,-74.56,55.66
0.07,-0.03,0.14,-14.31,-115.89,62.71
0.22,-0.02,0.33,3.92,-80.37,44.48
0.33,0.08,0.21,21.96,-25.51,34.31
0.4,0.08,0.13,-9.43,-8.25,35.1
0.21,-0.04,0.32,-11.34,40.32,25.94
0.01,0.01,0.13,-4.03,58.74,11.26
-0.11,0,-0.09,-7.2,63.92,-4.45
-0.31,0,-0.09,-6.24,91.96,-17.15
-0.58,0.03,0.07,-9.4,68.41,-27.07
-0.68,-0.06,0.08,4.82,78.98,-53.76
-1.13,0.02,-0.1,26.75,8.91,-89.64
-1.49,0.2,0.09,80.49,48.19,-184.21
-0.82,1.41,0.11,98.2,8.29,-220.41
0.69,2,-0.68,121.72,64.5,-162.16
-1.05,1.68,-0.15,150.37,79.51,-250.14
-0.97,2,-1.24,169.76,16.92,-230.76
-0.84,1.89,-0.43,152.56,-126.64,-156.07
0.4,1.91,-1,93.02,-176.61,-144.06
0.09,1.74,-0.82,36.74,-136.85,-45.74
-0.81,1.81,-0.42,33.79,-78.44,-33.42
-0.67,1.91,-0.28,29.47,-10.46,-38.89
-0.5,1.68,-0.3,14.42,31.39,-21.05
-0.58,1.55,-0.47,2.98,28.85,20.91
-0.8,1.74,-0.54,-11.66,11.76,56.52
-0.71,1.81,-0.53,-29.87,6.95,90.4
-0.43,1.69,-0.39,-47.26,50.92,119.42
-0.21,1.81,-0.5,-96.35,118.63,155.69
-0.62,1.93,-0.47,-145.25,119.1,180.53
-1.05,2,-0.84,-142.24,72.19,187.54
-0.78,2,-0.75,-133.37,16.36,191.46
0.06,2,-0.55,-125.62,24.17,175.83
0.54,1.4,-0.62,-104.3,-28.19,148.05
-0.11,1.04,-0.22,-77.08,-120.79,191.52
-1.03,0.02,1.25,-85.22,-62.11,189.65
-2,-0.88,-0.02,39.49,51.31,63.01
0.18,0.05,-2,19.37,47.95,-48.86
0.34,0.03,0.85,-25.85,81.13,-67.8
0.09,-0.03,0.35,-21.17,133.43,-89.35
-0.55,-0.45,0.39,50.13,87.79,-85.39
0,0.25,-0.38,42.38,-63.76,-37.89
0.44,0.33,-0.29,-24.58,-159.05,41.38
0.5,0,0.2,-24.02,-134.57,56.63
0.47,-0.11,0.19,-18.25,-106.73,44.03
0.24,0.02,0.27,-17.55,-49.1,29.24
0.21,0.11,0.23,-20.56,12.61,23
0.08,0,0.16,-14.83,53.29,6.23
-0.16,-0.07,0.11,-11.15,62.21,-8.52
-0.16,-0.11,0.13,-3.92,59.59,-16.69
-0.06,-0.02,-0.03,-0.22,81.96,-23.6
-0.21,0.04,-0.07,-10.47,91.82,-34.25
-0.52,-0.08,-0.01,-4.02,78.66,-51.89
-0.73,-0.13,-0.15,24.15,30,-77.42
-1.5,0.07,0.1,82.22,-26.75,-105.11
-2,0.79,-0.02,79.79,-49.98,-226.18
0.16,2,-1.89,109.5,-250.14,-142.62
1.04,1.16,0.44,130.74,47.92,-234.12
-0.06,2,-1.42,145.65,141.98,-250.14
-2,1.8,-0.66,146.27,1.65,-173.24
-0.95,1.68,-0.81,119.47,-176.06,-134.5
0.21,2,-0.67,78.7,-204.37,-73.31
0.01,1.63,-0.51,39.82,-80.51,-69.2
-0.92,1.46,-0.64,32.18,-49,-60.35
-0.82,1.64,-0.75,33.96,-28.07,-38.74
-0.52,1.52,-0.63,32.7,4.27,-17.96
-0.59,1.26,-0.28,14.18,14.87,21.78
-0.67,1.22,-0.38,2.79,20.62,65.47
-0.89,1.54,-0.43,-3.02,44.36,80.98
-0.64,1.78,-0.42,-19.05,94.63,96.97
-0.65,1.67,-0.51,-82.53,91.58,136.92
-0.86,1.59,-0.43,-149.44,40.54,191.98
-0.97,1.9,-0.67,-160.37,32.11,234.14
-1.12,2,-0.85,-147.25,27.73,224.75
-0.79,2,-0.69,-133.83,12.32,182.02
-0.11,1.87,-0.95,-101.61,-38.52,167.62
-0.35,1.15,-0.29,-93.63,-114.76,148.05
-0.54,0.23,0.34,-101.89,-121.36,171.15
-1.46,-0.43,0.66,-50.73,-27.73,107.44
-1.82,-0.37,-1.36,74.78,-50.92,-12.25
-0.01,0.2,-0.49,5.11,-74.3,-43.08
0.52,-0.01,0.63,-12.53,51.74,-76.92
0.27,-0.26,0.73,27.66,141.19,-80.99
-0.02,-0.09,0.03,46.62,118.98,-98.06
-0.09,0.32,0.05,18.23,67.59,-78.59
-0.03,0.21,0.06,20.31,17.01,-44.63
0.33,0.13,-0.04,14.47,-48.66,-31.11
0.59,0.07,0.26,12.97,-49.3,-9.45
0.61,0.14,-0.19,-16.98,-44.95,19.99
0.5,-0.03,0.1,-21.76,-17.52,39.5
0.25,-0.07,0.06,-21.15,11.9,30.66
0.15,-0.05,0.05,-17.95,33.66,23.28
0.07,-0.09,-0.02,-8.52,49.45,19.58
-0.35,-0.05,-0.05,-10.4,33.66,15.34
-0.86,-0.25,0.01,19.93,43.29,5.15
-1.15,-0.14,-0.46,61.01,23.26,-25.91
-1.84,0.08,-0.48,85.54,-38.38,-107.37
-1.04,1.9,-0.25,46.49,3.58,-250.14
-0.4,2,-0.62,173.95,-41.72,-175.9
0.75,2,0.62,117.65,22.72,-250.14
-0.03,2,-0.54,148.13,56.47,-175.61
-0.79,1.99,-1.22,127.09,-46.18,-139.44
-1.81,2,-1.26,96.56,-187,-110.44
-0.32,2,-0.56,56.45,-166.71,-114.21
0.34,1.25,-0.05,21.54,-26.24,-75.07
-0.24,0.95,-0.42,14.46,83.85,-11.46
-1.91,1.58,-0.92,7.6,29.12,4.77
-1.33,1.61,-0.8,-8.08,-98.85,46.53
-0.31,1.24,-0.52,-12.15,-67.5,83.25
-0.05,1.25,-0.44,-6.85,59.95,99.97
-0.58,1.92,-0.57,-57.1,119,134.61
-1.01,2,-0.39,-124.22,75.68,175.49
-0.88,2,-0.3,-145.44,21.36,188.37
-0.83,2,-0.37,-150.07,33.75,173.38
0,2,-0.42,-157.03,47.92,152.89
0.82,1.99,-0.84,-139.28,39.41,148.52
0.56,1.03,-0.94,-105.04,38.58,124.94
-0.51,0.3,-0.16,-138.93,50.17,194.69
-1.35,-0.37,0.38,-25.8,156.58,158.73
-2,-0.46,-1.69,66.68,94.69,29.65
-0.37,0.46,-0.55,-53.32,103.6,-46.18
-0.57,-0.1,0.36,-37.52,128.26,-88.26
-0.82,-0.53,-0.09,-2.44,45.82,-70.76
-0.47,-0.3,-0.05,50,-58.5,-46.83
0.52,0.39,0.27,22.46,-68.06,-54.53
0.6,0.39,0,-2.98,-88.93,0.72
0.45,-0.01,0.05,-9.27,-61.07,33.67
0.37,-0.09,-0.04,-12.98,-79.63,36.08
0.54,-0.04,0.11,-12.45,-69.21,46.78
0.39,0.08,0.2,-12.18,-3.95,44.61
0.11,0.06,0.11,-17.14,47.64,37.74
-0.19,0.05,0.14,-27.35,44.02,27.21
-0.48,-0.06,0.13,-22.3,19.82,21.08
-0.61,-0.17,-0.08,5.35,-3.08,2.3
-0.55,-0.07,-0.2,18.65,-18.69,-26.71
-0.38,-0.09,-0.02,32.16,11.44,-60.57
-2,-0.38,-1.24,109.93,72.79,-130.61
0.74,1.18,0.96,95.54,-12.58,-239.72
-1.22,2,-1.9,69.12,54.18,-76.98
-0.95,1.89,-0.99,138.62,62.54,-224.1
-1.77,2,0.56,163.55,-22.75,-250.14
-1.04,2,-1.26,144.66,-134.92,-183.18
0.48,1.49,-0.35,94.53,-168.15,-137.97
0.91,0.91,-0.4,42.51,-81.3,-69.8
-0.79,1.42,-0.31,31.36,33.59,-41.18
-1.72,2,-0.61,20.68,26.64,-56.77
-1.14,1.52,-0.72,1.79,-36.52,-2.09
-0.39,1.19,-0.64,-7.66,-61.81,28.96
-0.37,1.38,-0.58,0.87,-12.11,59.58
-0.48,1.7,-0.47,-5.36,57.92,81.39
-0.43,1.82,-0.58,-46.91,76.36,112.22
-0.61,1.75,-0.54,-101.93,77.81,166.36
-0.74,1.98,-0.37,-120.77,50.47,188.53
-0.93,2,-0.42,-128.36,33.81,199.69
-0.57,2,-0.46,-133.24,16.92,193.86
0.06,2,-0.58,-127.06,45.44,183.47
0.17,1.41,-0.94,-105.6,14.18,162.86
-0.56,0.82,0.11,-102.07,-119.05,122.62
-1.44,-0.13,1.04,-78.43,-109.64,140.07
-2,-1.09,-0.52,69.08,-16.79,40.28
0.12,-0.07,-1.57,31.77,-29.09,-32.48
0.7,0.14,0.15,-25.63,44.04,-56.15
0.62,0.21,0.55,-27.27,157.86,-77.15
-0.24,-0.36,0.39,48,144.45,-81.05
-0.28,0.09,-0.33,26.29,-18.08,-34.3
0.42,0.36,-0.07,-21.01,-95.94,29.06
0.51,0.05,0.15,-20.11,-87.74,48.1
0.4,-0.09,0.19,-12.47,-61.61,34.46
0.15,0.05,0.2,-10.37,-13.56,25.89
0.17,0.07,0.11,-20.45,31.63,27.17
0.07,-0.02,0.1,-25.95,62.88,7.81
-0.17,-0.05,0.11,-19.97,63.3,-7.21
-0.28,-0.02,0.09,-9.67,56.11,-15.03
-0.32,0.02,0.01,-5.68,60.5,-18.04
-0.41,-0.04,-0.07,-3.19,58.84,-26.79
-0.5,-0.12,-0.11,5.85,45.4,-47.18
-0.51,-0.17,-0.05,22.65,54.5,-88.88
-2,-0.3,-1.18,76.81,135.27,-183.37
0.42,1.7,0.08,106.36,-85.34,-250.14
-0.45,2,-2,136.96,-32.5,-49.31
-0.42,2,0.16,145.3,-7.6,-220.1
-1.62,2,-1.47,203.32,-44.31,-190.85
-1.2,2,0.13,181.24,1.45,-216.6
-0.03,1.93,-0.5,124.7,-90.24,-120.64
0.07,1.66,0.05,62.98,-87.11,-94.33
-0.16,1.61,-0.06,-0.47,-86.3,-52.24
-0.76,1.14,-0.42,-22.92,-46.34,3.21
-1.12,1.57,-0.66,-6.29,42.41,-10.66
-1.05,1.7,-0.74,-12.02,57.08,-1.42
-0.6,1.25,-0.57,-28.68,24.98,42.3
-0.38,1.33,-0.49,-42.22,31.7,89.68
-0.39,1.72,-0.64,-71.24,59.31,135.17
-0.69,2,-0.59,-123.5,77.31,178.16
-0.64,2,-0.35,-147.63,79.18,187.47
-0.98,2,-0.65,-152.63,72.1,191.68
-0.73,2,-0.65,-144.91,19.49,184.85
-0.07,2,-0.86,-119.17,-25.28,165.93
0.5,1.06,-0.76,-90.4,-44.15,174.66
-0.09,0.35,0.35,-83.15,-22.33,141.94
-0.96,0.07,1.1,-59.71,10.42,139.34
-2,-1.17,-1.09,78.59,-9.12,63.29
-0.17,0.29,-1.15,-0.6,53.66,-64.4
0.31,0.33,0.58,-15.92,13.97,-42.6
0.31,0.03,0.25,-12.77,59.17,-66.85
-0.11,-0.31,0.15,14.18,51.89,-67.52
0.02,-0.01,-0.08,29.06,-8.02,-44.59
0.42,0.32,-0.34,-7.14,-74,10.91
0.35,0.01,0,-19.17,-51.15,42.01
0.1,-0.14,0.05,-12.42,-77.81,44.54
0.1,-0.04,0.13,-4.27,-82.4,31.97
0.08,0.01,0.18,-0.5,-49.11,19.79
0.06,0.04,0.12,-2.41,-5.61,13.44
0.07,0.06,0.06,-10.28,27.74,-0.73
-0.05,0,0.1,-14.07,44.63,-14.49
-0.24,-0.08,0.15,-3.11,62.27,-17.79
-0.44,-0.01,-0.1,8.34,76.12,-32.31
-0.57,-0.09,-0.24,18.74,55.15,-52.46
-0.72,-0.13,0.25,48.57,55.02,-101.43
-2,-0.22,-1.65,103.5,152.29,-185.21
0.61,1.66,1.17,136.34,-45.51,-250.14
-0.08,2,-2,102.18,-194.24,-9.93
0.53,2,-1.9,169.32,-38.26,-115.17
-2,2,-0.61,197.99,-26.03,-213.04
-2,2,-0.39,192.98,-53.65,-214.38
0.09,2,-0.11,127.76,-71.59,-199.66
1.09,1.34,-0.13,64.76,-54.11,-109.76
-0.08,0.92,-0.18,6.54,-43.02,-31.56
-1.51,1.29,-0.97,-16.98,-58.2,16.82
-1.5,2,-0.98,14.04,-18.09,-14.66
-0.51,1.33,-0.46,-4.48,34.37,17.56
-0.1,0.78,-0.19,-25.89,87.71,43.94
-0.82,1.49,-0.3,-71.63,105.71,108.57
-1.35,2,-0.48,-127.66,43.18,152.68
-0.91,1.95,-0.33,-151.76,18.88,173.63
-0.75,2,-0.72,-166.3,60.15,178.94
-0.94,2,-0.86,-168.73,70.89,166.98
-0.26,2,-1,-153.85,13.91,167.26
0.43,1.7,-0.97,-124.69,-2.7,172.42
0.56,0.59,-0.72,-84.31,-26.23,192.02
-0.47,0.08,0.31,-88.66,-34.87,144.96
-2,-0.19,0.49,-12.85,60.36,95.4
-1.09,-0.21,-1.17,61.46,13.46,20.66
0.08,0.21,0.05,-22.44,72.97,-28.6
0.12,-0.04,0.01,-18.54,85.06,-53.55
-0.2,-0.25,0.23,-3.14,65.66,-43.6
-0.47,-0.16,0.03,40.59,18.27,-49.48
0.17,0.17,-0.14,16.93,-97.41,-7.15
0.48,0.21,-0.01,-8.09,-99.02,33.74
0.26,0.01,0.08,-9.26,-82.91,38.98
0.11,0.01,0.16,-5.9,-83.3,28.41
0.01,0.03,0.25,-2.94,-68.63,11.53
0.11,-0.04,0.22,0.11,-39.04,3.63
0.19,-0.02,0.1,-3.43,4.81,-7.89
0.17,0.03,0.01,-10.61,53.91,-25.18
0.07,0.07,0.04,-19.91,109.15,-34.6
-0.32,0.05,0.12,-19.19,119.96,-33.85
-0.69,-0.14,-0.18,-14.64,84.09,-46.08
-0.87,-0.27,-0.16,21.34,15.17,-66.97
-1.93,-0.4,-0.22,72.31,43.69,-141.25
-0.01,0.51,0.52,118.47,-130.71,-229.56
0.49,2,-1.83,94.3,-47.42,-159.05
1.58,2,1.3,71.65,81.47,-31.56
-1.44,1.98,-1.62,144.73,50.37,-171.88
-2,2,-2,149,-93.46,-250.14
-1.2,2,-0.7,153.37,-167.73,-177.44
0.86,1.99,0.29,68.19,-145.79,-144.95
0.81,0.45,0.27,-2.74,-71.35,-58.91
-0.86,0.71,-0.51,-18.89,-39.55,-23.39
-1.84,1.76,-0.86,-19.55,-91.6,-32.05
-1,1.46,-0.91,-21.83,-74.85,8.96
-0.43,0.97,-0.55,16.47,45.38,12.53
-0.15,1.25,-0.27,23.6,115,27.28
-0.41,1.74,-0.3,-24.46,129.4,79.83
-1.08,1.84,-0.55,-70.48,83.9,126.47
-1.1,1.79,-0.53,-93.94,-3.13,152.89
-0.86,1.86,-0.56,-111.89,-39.66,184.32
-0.26,2,-0.42,-132.77,29.96,214.07
-0.43,2,-0.52,-143.63,111.49,199.14
-0.52,2,-0.69,-123.95,66.5,178.44
-0.47,1.6,-0.5,-114.06,16.6,157.63
0.26,0.32,-0.12,-111.21,-51.25,133.36
-0.79,0.09,0.29,-75.95,-33.93,106.22
-1.96,-0.29,0.11,8.86,11.4,90.11
-1.73,-0.72,-1.2,104.79,-7.56,-8.35
0.2,0.21,-0.1,-12.83,0.98,-39.16
0.82,0.21,0.29,-28.07,90.19,-65.22
0.03,-0.19,0.27,1.11,129.65,-77.23
-0.53,-0.18,0,44.47,70.26,-62.19
0.19,0.21,-0.1,21.02,-36.27,-8.44
0.37,0.11,0.07,-12.62,-53.66,34.69
0.13,-0.05,0.05,-13.85,-81.26,37.98
0.05,-0.03,0.12,-6.54,-88.56,35.62
0.07,0.07,0.1,-7.09,-50.53,28.59
0.16,0.03,0.08,-10.67,-13.45,19.74
0.03,-0.04,0.12,-14.18,6.82,3.02
-0.19,-0.02,0.15,-11.44,7.18,-9.49
-0.23,0,0.17,-6.8,14.73,-16.05
-0.29,-0.04,0,0.3,28.57,-21.88
-0.15,-0.15,-0.17,17.82,51.1,-38.73
-0.4,-0.21,0.26,49.83,75.82,-80.81
-2,-0.46,-1.44,111.27,159.11,-177.24
0.26,1.67,1.36,120.23,-16.18,-250.14
-0.5,2,-2,90.58,-82.61,-28.85
-0.73,1.85,-1.32,133.56,-56.53,-195.56
-1.62,2,-2,187.09,-66.02,-204.4
-1.66,2,-1.35,162.63,-118.56,-224.29
0.29,2,0.16,93.35,-133.59,-148.85
0.91,0.79,0.32,28.67,-99,-84.37
-0.36,0.82,-0.13,-2.4,-2.19,-24.27
-1.36,1.87,-0.72,-16.64,14.74,-11.58
-1.27,1.7,-1.02,-28.07,-29.45,1.25
-0.96,1.16,-0.96,-14.36,-17.36,23.28
-0.38,1.08,-0.48,-7.45,33.64,41.54
-0.41,1.27,-0.31,-20.05,88.22,81.37
-0.84,1.69,-0.6,-62.54,86.79,120.63
-0.95,1.85,-0.58,-101.4,27.15,149.77
-0.57,1.83,-0.45,-130.06,-2.61,185.64
-0.22,2,-0.27,-155.7,31.82,225.11
-0.5,2,-0.57,-167.82,94.61,219.7
-0.48,2,-0.77,-147.98,62.7,161.82
0.69,1.81,-1.33,-124.39,-42.21,131.67
0.42,0.34,-0.8,-73.21,35.01,175.54
-0.9,-0.11,0.59,-71.86,26.34,201.5
-2,-0.51,0.46,9.74,55.92,77.71
-0.72,0.02,-1.12,60.97,-74.31,19.11
0.33,-0.03,0.15,-0.76,92.6,-52.87
-0.14,0.07,-0.14,-19.78,91.88,-85.66
-0.18,-0.26,0.4,10.14,43.34,-73.24
-0.24,-0.1,0.08,26.87,11.34,-60.6
0.15,0.24,-0.1,7.85,-49.79,-27.31
0.39,0.18,-0.09,-5.79,-75.3,11.23
0.35,-0.06,-0.07,-4.5,-94.34,27.15
0.34,-0.05,0.05,3.15,-94.55,31.02
0.28,0.04,0.1,4.73,-50.91,25.69
0.19,0.02,0.09,-2.38,3.85,17.24
0.12,0,0.03,-10.47,33.8,6.56
0,-0.01,-0.04,-13.76,47.79,-5.63
-0.29,-0.07,0.15,-6.52,72.97,-19.19
-0.55,-0.08,0.01,10.32,64.15,-31.94
-0.57,-0.21,-0.29,35.75,52.79,-55.68
-1.08,-0.35,-0.38,83.28,48.21,-102.78
-1.26,0.18,-0.25,93.53,61.5,-207.53
0.01,1.96,-0.01,157.5,-8.29,-177.5
-0.91,2,-1.88,135.75,-25.09,-146.45
-1.33,2,-1.35,170.71,-104.22,-150.04
-0.8,1.89,-0.11,171.96,-97.11,-225.36
0.04,2,-0.46,119.87,-77.38,-139.9
0.48,1.45,-0.21,83.57,-53.34,-70.52
-0.33,1.36,-0.44,30.03,-23.13,-47.2
-1.71,1.51,-0.77,-0.52,-64.6,-6.88
-1.45,2,-0.8,20.87,-51.11,-20.53
-0.4,1.34,-0.69,1.2,-28.15,13.73
-0.27,1.01,-0.55,4.57,11.39,47.44
-0.68,1.46,-0.6,-3.15,22.79,82.89
-0.94,1.81,-0.61,-26.02,16.45,107.55
-0.78,1.67,-0.57,-48.33,18.21,110.49
-0.55,1.84,-0.19,-93.24,15.42,132.42
-0.23,1.94,0,-134.98,37.38,196.43
-0.6,2,-0.39,-144.76,54.37,199.18
-0.86,2,-0.54,-133.64,38.37,169.36
-0.05,1.7,-0.67,-127.47,37.81,129.09
0.27,0.78,-0.77,-107.87,32.55,139.98
-0.13,0.36,-0.25,-81.17,35.13,114.72
-0.93,-0.23,0.22,-69.31,38.71,94.45
-2,-0.82,-0.15,17.63,-8.48,15.14
-0.87,0.06,-0.86,46.64,-65.74,-15.79
0.5,0.17,-0.03,-18.95,-36.92,-2.05
0.84,0.03,0.16,-27.55,56.79,-31.48
0.28,-0.22,0.16,-8.08,106.98,-59.92
-0.37,-0.12,0.08,13.42,84.74,-49.13
-0.12,0.15,0.01,4.28,28.83,-12.55
0.11,0.12,0.04,-12.09,-25.35,17.88
0.09,-0.06,0.03,-15.01,-70.08,23.69
0.09,0,0.04,-8.99,-82.35,21.39
0.18,0.05,0.07,-4.82,-51.35,16.8
0.23,0,0.02,-4.76,-3.96,9.35
0.16,-0.01,-0.01,-7.98,30.68,-2.57
0.01,0.04,0.02,-14.13,47.16,-12.32
-0.18,-0.07,0.11,-4.34,69.5,-19.34
-0.39,-0.11,-0.05,8.63,82.18,-34.78
-0.88,-0.34,0,44.95,67.47,-61.03
-2,-0.22,-0.97,73.31,60.33,-134.33
0.64,1.7,0.29,88.6,-95.68,-173.51
-1.54,2,-2,54.45,-12.47,22.16
-2,2,-0.5,148.34,-73.67,-250.14
-0.31,2,-1.07,157.68,-160,-250.14
0.62,2,-1.26,98.11,-54.27,-205.37
1.14,0.93,-0.15,85.03,3.28,-54.28
-0.17,0.95,-0.44,41.49,54.53,-32.92
-2,2,-0.66,13.41,-47.2,-36.67
-1.33,2,-0.9,-6.16,-122.05,19.97
0.09,1.42,-0.46,-17.56,-8.2,20.53
0.22,1.6,-0.42,-39.72,146.6,39.53
-0.75,1.98,-0.45,-98.64,131.43,111.7
-1.2,1.87,-0.41,-123.38,10.05,141.9
-0.82,1.94,-0.43,-123.69,-38.08,161.29
-0.56,2,-0.72,-136.63,25.73,176.53
-0.37,2,-0.73,-141.77,86.94,171.82
-0.03,2,-0.91,-129.12,58.46,143.32
0.14,1.18,-0.83,-101.56,-7.5,172.56
0.09,0.36,-0.25,-82.26,-36.5,169.6
-0.92,-0.1,0.7,-81.26,-20.08,127.4
-2,-0.63,-0.09,21.08,37.17,49.85
-0.57,0.04,-0.86,57.44,-53.25,-5.33
0.27,0.03,0.09,8.22,-7.48,-39.44
0.25,0.04,0.17,-14.51,35.15,-54.06
0.06,-0.12,0.33,13.21,59.45,-59.52
-0.18,-0.05,0.1,41.41,23.22,-53.67
0.41,0.2,-0.19,10.18,-38.74,-16.34
0.38,0.14,0.01,-13.7,-34.95,20.92
0.07,-0.05,0.05,-8.63,-62.05,33.53
0.13,-0.05,0.12,7.08,-74.82,25.16
0.16,0,0.11,11.37,-46.68,15.8
0.21,0.01,0.08,5.03,-8.66,7.31
0.13,0.05,0.05,-3.77,21.44,-4.17
-0.06,0.02,0.08,-6.95,44.37,-15.26
-0.33,-0.06,0.04,3.88,72.1,-31.21
-0.65,-0.11,-0.17,23.74,86.95,-55.94
-0.78,-0.18,-0.13,43.66,59.64,-92.92
-1.16,-0.32,-0.38,108.42,18.02,-143.42
-0.72,0.44,-0.4,118.75,40.17,-213.79
0.11,2,-0.24,122.55,-30.56,-209.13
-0.01,2,-0.22,88.52,-9.37,-27.44
-1.01,2,0.14,114.56,-46.05,-194.76
-2,2,-1.07,166.41,-89.82,-194.96
-0.92,1.96,-0.28,105.44,-157.54,-192.4
0.84,1.26,-0.19,46.25,-141.54,-120.2
0.58,0.62,-0.15,1.15,-19.22,-38.03
-1.11,1.19,-0.78,5.48,48.97,0.72
-2,2,-1.27,-3.85,-3.05,-38.82
-0.74,1.65,-0.74,-11.34,-56.49,19.2
0.06,0.91,-0.55,-23.53,6.81,53.64
-0.4,0.89,-0.61,-5.55,79.48,81.22
-0.86,1.56,-0.8,-22.76,80.4,117.36
-0.8,1.93,-0.71,-69.66,37.24,143.02
-0.47,1.7,-0.35,-132.42,46.64,190.1
-0.46,2,-0.19,-162.72,89.47,240.98
-1.26,2,-0.47,-173.47,86.11,200.8
-0.72,2,-0.85,-139.44,-19.31,170.08
0.02,1.55,-0.71,-123.78,-16,167.22
0.7,0.42,-0.62,-94.96,-35.13,142.31
-0.29,0.43,-0.18,-75.8,-31.44,156.89
-1.3,0.34,0.41,-57.63,66.56,147.04
-2,-1.06,-0.77,25.53,-85.3,13.86
0.06,-0.07,-0.49,7.64,-62.87,-37.8
0.35,-0.03,0.18,-13.85,71.82,-82.05
0.12,-0.07,0.29,1.16,121.09,-109.89
0.27,0.05,0,6.83,147.35,-126.37
-0.09,0.08,0.04,10.39,127.82,-102.53
-0.26,0.16,0.03,16.96,68.24,-68.64
-0.02,0.04,0.04,21.44,-46,-25.39
0.5,0.04,-0.14,12.39,-133.76,-0.58
0.69,-0.01,-0.05,9.47,-154.44,27.18
0.58,0,0.06,-0.74,-71.64,39.44
0.43,0.04,0.01,-13.6,21.01,35.44
0.34,0.05,0.04,-18.79,96.35,22.78
-0.26,0.06,0.11,-28.44,83.55,19.1
-1.09,-0.34,-0.09,12.52,31.68,-7.15
-1.54,-0.43,-0.53,72.66,-18.1,-61.43
-2,-0.42,-0.84,89.37,-75.89,-104.92
1.23,0.57,1.97,104.79,-43.17,-214.89
-0.15,2,-1.61,55.46,39.27,-61.56
-0.89,2,-1.58,106.24,49.58,-104.08
-2,2,-1.99,138.98,-29.32,-171.48
-2,2,-1.06,169.82,-189.56,-204.95
0.62,2,-0.63,121.5,-114.39,-164.02
0.98,1.28,-0.22,66.92,-25.65,-91.28
-0.07,1.09,-0.12,33.96,53.73,-23.65
-1.86,1.76,-0.93,12.56,-9.47,-2.81
-1.53,2,-0.71,19.54,-98.04,-14.44
-0.04,1.74,-0.33,-13.99,-41.08,17.21
0.24,1.23,-0.3,-45.33,85.64,59.76
-0.72,1.51,-0.53,-83.94,106.52,116.58
-1.52,1.9,-0.58,-103.42,9.97,133.7
-0.89,2,-0.46,-116.13,-32.37,146.2
-0.21,1.93,-0.41,-154.91,50.47,186.26
-0.56,2,-0.96,-149.59,102.37,181.11
-0.95,2,-0.93,-127.08,42.02,163.11
-0.71,1.4,-0.43,-105.42,-42.8,130.39
0.16,0.17,-0.23,-71.92,-77.12,118.44
0.13,-0.08,0.12,-31.06,-80.65,97.82
-0.8,-0.01,0.24,-34.33,-5.83,58.38
-1.76,-0.37,-0.21,17.69,-16.82,23.65
-0.15,0.11,-0.55,26.08,-17.53,-5.7
0.32,0.07,-0.01,-9.17,44.49,-24.14
0.14,-0.12,0.04,-14.92,85.69,-49.55
-0.18,-0.16,0.15,12.31,69.02,-50.61
-0.31,-0.01,0.04,21.82,40.51,-36.45
-0.07,0.11,-0.08,8.99,-14.5,-27.73
0.12,0.09,-0.02,0.32,-62.6,-9.67
0.11,-0.03,-0.02,-2.11,-79.02,2
0.16,-0.03,0.02,2.81,-75.6,9.79
0.26,0.05,0.07,5.69,-50.44,6.98
0.23,0.01,0.04,5.47,-7.47,-4.53
0.09,-0.02,0.04,5.34,31.76,-18.01
-0.11,-0.08,0.01,12.18,44.38,-29.69
-0.29,-0.19,-0.09,33.24,37.08,-43.6
-0.43,-0.25,-0.25,59.85,21.4,-65.41
-2,-0.42,-0.81,88.34,73.76,-121.82
1,1.42,1.25,147.53,-33.5,-217.32
-0.77,2,-1.21,98.02,-107.94,-19.33
-1.42,2,-0.93,94.51,-8.58,-114.43
-1.97,2,-1.57,131.66,-88.45,-250.14
-1.38,2,-0.52,162.13,-106.49,-204.69
0.38,1.31,0.19,57.54,-78.55,-192.17
1.39,0.63,-0.14,5.15,-6.8,-57.64
-0.47,0.87,-0.66,9.7,39.42,21.17
-2,2,-1.02,9.45,-19.43,-40.5
-1.4,2,-0.95,-2.3,-112.97,-27.6
-0.02,1.11,-0.69,-20.22,-61.69,28.92
0.2,0.52,-0.17,4.03,87.9,48.94
-0.73,1.51,-0.64,-11.08,148.27,70.08
-1.48,2,-0.59,-49.72,53.47,79.94
-0.91,1.6,-0.51,-82.66,-25.08,122.93
-0.25,1.34,-0.5,-118.15,-12.33,159.29
-0.44,1.76,-0.4,-134.78,7.37,228.65
-0.96,2,-0.7,-134.51,22.6,219.52
-1,2,-0.58,-121,13.81,171.13
-0.08,1.64,-0.54,-109.41,-0.75,140.63
0.53,0.73,-0.61,-91.28,44.4,130.05
-0.11,0.09,0.11,-69.79,75.28,125.05
-0.67,-0.24,0.7,-75.84,56.74,119.23
-2,-0.72,-0.46,4.9,23.6,10.96
-0.76,-0.09,-0.96,80.44,-37.73,-2.37
0.05,0.31,-0.15,-11.37,-0.1,-20.67
0.31,0.03,0.32,-18.89,30.65,-53.26
0.15,-0.22,0.28,-0.54,67.18,-68.31
-0.11,-0.16,0.27,44.71,68.37,-63.09
0.11,0.33,-0.14,19.27,19.56,-40.98
0.44,0.18,-0.09,-8.83,-9.17,8.86
0.21,-0.08,0.06,-17.97,2.84,18.82
0.05,-0.07,0.06,-11.85,-30.08,21.08
0.03,-0.08,0.04,-1.21,-28.24,12.08
-0.01,-0.05,0.1,9.92,6.18,10.67
-0.01,0.07,0.05,-3.05,45.56,5.72
-0.2,0.01,0.02,-5.78,72.55,-12.24
-0.58,-0.12,-0.04,8.42,65.43,-38.05
-1.03,-0.34,0.15,55.82,40.18,-71.02
-2,-0.29,-1.47,77.29,15.28,-107.92
1.39,0.93,1.29,113.18,5.63,-208.34
-0.7,1.79,-2,106.44,21.66,-57.63
-1.5,2,-0.85,121.12,-41.91,-108.11
-2,2,-0.12,159.56,-94.27,-179.05
-1.53,2,-1.57,157.18,-170.1,-200.15
0.3,2,-0.94,119.91,-50.31,-223.22
1.1,1.88,0.21,63.09,8.54,-153.17
0.81,0.81,-0.25,35.5,37.56,-37.02
-1.3,1.21,-1.14,3.34,-78.25,36.66
-2,2,-1.06,2.92,-146.67,2.34
-0.79,1.56,-0.49,19.69,-64.58,2.63
0.35,0.9,-0.31,-5.06,76.68,24.93
0.02,1.18,-0.32,-29.41,167.24,62.28
-1.51,1.85,-0.3,-89.6,121.94,107.05
-1.61,1.81,-0.31,-122.03,-37.41,140.74
-0.61,1.65,-0.34,-131.36,-55.64,174.76
0.13,1.9,-0.51,-156.64,60.59,183.58
-0.37,2,-0.65,-181.75,145.2,176.6
-0.43,2,-1.11,-153.04,65.37,168.51
-0.07,1.8,-0.77,-130.22,11.98,186.6
0.78,0.42,-0.54,-91.78,-54.02,170.35
-0.59,0.27,0.05,-63.6,-24.73,166.28
-1.6,0.24,0.3,-23.47,74.99,178.15
-2,-0.56,-1.74,84.43,-134.11,43.44
0.3,0.05,-0.03,-0.76,-15.69,-43.57
0.26,-0.2,0.17,6.37,53.85,-56.55
0.31,-0.06,0.29,-8.9,59.82,-87.02
-0.17,-0.02,0.04,14.45,57.05,-67.02
0.11,0.16,-0.03,14.32,8.62,-21.76
0.54,0.19,-0.17,-18.04,-38.78,19.04
0.36,-0.01,0.06,-21.18,-37.8,21.92
0.08,-0.07,0.15,-15.75,-60.43,24.02
-0.05,-0.07,0.18,-4.56,-67.55,6.4
-0.03,0.07,0.14,1.5,-48.18,2.86
0.14,0.09,0.05,-4.96,-19.31,-1.11
0.15,0,-0.01,-14.97,27.18,-21.19
-0.01,-0.07,-0.03,-15.49,97.31,-41.53
-0.33,-0.07,-0.01,-6.43,144.72,-59.53
-0.86,-0.35,-0.21,10.66,109.6,-92.92
-1.54,-0.59,-0.48,106.73,40.15,-133.83
-0.49,0.72,-0.35,108.62,75.05,-208.39
-0.1,2,-1.16,113.85,36.85,-128.5
-1.73,2,-0.43,126.35,18.7,-209.79
-1.64,2,-2,139.67,-163.96,-123.26
-0.66,2,-1.26,142.3,-208.45,-144.39
1.04,2,-0.14,112.87,-61.66,-154.53
0.34,1.32,-0.13,67.4,-47.6,-126.92
-0.29,1.13,-0.14,15.27,-34.18,-43.57
-0.94,1.43,-1.02,-2.28,-17.25,-13.19
-1.63,1.57,-1.14,-5.47,-54.31,-35.42
-0.84,1.3,-0.81,-0.39,-77.29,-2.46
0.02,0.81,-0.72,-6.11,-21.81,52.44
-0.55,1.22,-0.63,7.93,67.27,63.21
-0.9,1.93,-0.62,-23.69,54.31,81.63
-0.86,1.69,-0.47,-69.9,27.09,125.77
-0.77,1.61,-0.16,-104.93,35.16,161.79
-0.99,1.92,-0.39,-106.01,19.79,182.45
-0.25,0.05,-0.06,-0.63,-32.15,-28.17
-0.18,0.03,-0.03,1.92,-27.02,-35.94
-0.22,-0.03,0.14,-0.93,22.08,-62.84
-0.89,-0.19,0.15,59.79,61.75,-111.31
-2,0.16,-1.46,134.4,90.76,-217.62
0.08,2,0.41,126.78,-94.44,-250.14
0.37,1.99,-0.58,113.01,-80.31,-138.21
-1.63,2,-1.37,134.31,-46.27,-99.62
-2,2,-1.03,186.02,-84.4,-246.28
0.42,2,0.23,128.31,-111.85,-197.15
1.37,1.78,0.38,19.24,-85.34,-105.52
0.16,1.15,-0.13,-30.44,-47.19,13.68
-1.71,2,-0.58,-9.73,-35.47,8.6
-0.84,2,-0.53,-6.69,-3.26,-25.26
0.06,1.34,-0.51,-14.45,13.63,4.1
-0.01,1.12,-0.39,-25.96,22.15,62.79
-0.73,1.45,-0.4,-42.24,56.8,109.38
-0.97,2,-0.32,-95.79,-7.22,141.02
-0.12,2,-0.57,-138.63,58.18,173.38
-0.52,2,-0.59,-161.77,138.33,178.14
-0.93,2,-0.88,-150.94,72.62,180.5
0.04,2,-0.86,-117.05,-37.76,160.39
0.76,1.58,-0.74,-79.66,-109.69,241.08
0.06,0.31,0.33,-85.24,45.94,250.13
-2,-0.96,0.29,23.69,162.17,94.1
-0.79,-0.86,-0.48,82.64,48.25,-27.34
0.63,0.26,-0.12,0.5,95.58,-78.25
-0.7,0.3,-0.07,-22.32,-0.24,-65.16
-0.9,-0.11,-0.2,-4.87,-167.89,9.76
0.23,-0.1,-0.16,-6.15,-222.44,26.92
0.75,0.02,0,-3.02,-167.85,18.31
0.72,0.11,0.04,-7.05,-44.02,-3.27
0.32,0.13,0.03,-18.03,80.69,-21.37
-0.24,-0.09,0.13,-15.19,96.78,-37.95
-0.48,-0.16,0.1,2.33,30.53,-44.23
-0.27,-0.01,-0.09,9.08,-8.76,-39.17
0.1,0.11,-0.11,5.66,-0.68,-37.51
0.05,0.11,-0.02,1.54,3.15,-37.37
-0.12,0.01,-0.04,4.45,6.15,-40.95
-0.32,-0.01,-0.06,13.16,-17.91,-44.44
-0.36,-0.02,-0.1,27.03,-54.26,-52.28
-0.28,-0.05,-0.16,46.53,-75.56,-71.81
0.1,0.01,-0.12,93.41,-93.56,-102.32
-0.36,0.55,-0.02,119.89,-15.88,-136.03
-0.53,1.59,-0.57,193.43,-78.5,-177.19
0.41,2,-0.55,132.8,-135.85,-108.54
-0.19,2,-1.06,121.83,-47.39,-71.43
-0.64,2,-0.35,147.34,-38.76,-107.6
-0.65,2,0.06,108.76,13.27,-53.72
-0.03,1.74,0.03,40.6,-33.18,-7.31
-1.34,1.93,-1.11,-27.27,-122.55,45.18
-2,2,-0.85,-2.37,-142.44,-11.86
0.1,1.98,-0.9,-2.82,8.73,-0.53
0.46,1.34,-0.66,-36.02,211.52,75.56
-0.77,1.9,-0.15,-97.98,168.31,200.96
-2,2,-0.31,-131.36,-5.66,168.21
-0.85,2,-0.35,-151.96,-33.18,164.91
0.77,2,-0.84,-142.44,20.68,178.99
1.13,2,-1.46,-88.69,56.13,195.41
-0.61,1.49,-0.2,-136.12,3.37,237.02
-1.67,-0.51,1.33,-101.5,36.24,188.75
-2,-1.61,-1.63,51.52,200.92,-13.15
-0.74,0.36,-1.05,-27.59,103.45,-126.04
-0.43,-0.16,0.88,-20.24,12.02,-121.77
-0.14,-0.1,0.39,10.38,13.07,-99.35
0,0.11,-0.08,23.79,-86.43,-96.1
0.42,0.29,-0.01,43.35,-70.85,-79.42
0.54,0.38,-0.24,13.01,-57.18,-41.31
0.62,0.09,0.05,5.44,-60.73,-13.15
0.66,0.04,0.03,-0.1,-84.96,1.59
0.5,0.15,0.25,2.73,-45.56,19.38
0.36,0.09,0.25,8.63,-10.29,29.05
0.28,-0.01,0.1,-2.08,-7.24,35.54
0.14,-0.01,0.11,-6.69,-5.69,41.32
0.05,0.05,0.17,-16.34,-2.96,32.3
-0.02,0.03,0.22,-16.24,12.24,19.03
-0.28,-0.01,0.43,-11.23,54.22,-13.95
-0.96,-0.39,-0.28,69.76,132.54,-56.47
-1.04,-0.05,-0.76,99.68,82.31,-120.76
-0.65,0.3,-0.38,104.31,101.84,-209.5
-1.55,-0.3,-0.88,149,130.67,-197.41
0.04,1.68,0.85,90.73,-33.53,-250.14
-0.76,2,-1.06,121.27,0.29,-106.39
-1.98,2,-0.8,134.31,-76.05,-174.26
-0.93,2,-1.37,131.36,-63.8,-196.82
0.2,2,-0.34,112.18,-77.26,-168.89
0.24,1.11,0.18,31.08,-93.34,-96.08
-0.1,1.03,-0.15,-8.35,-65.15,-12.13
-2,1.89,-1.03,-15.51,-11.24,13.85
-1.75,2,-0.95,-6.62,-6.33,1.24
-0.18,1.09,-0.47,-6.41,37.05,42.42
-0.13,1.18,-0.31,-17.24,114.11,96.57
-0.93,1.91,-0.31,-52.68,120.86,139.23
-1.24,2,-0.67,-107.15,88.27,170.22
-1.11,2,-0.77,-157.09,66.91,155.53
-0.78,2,-0.71,-185.69,74.98,161.6
0.01,1.97,-0.66,-197.76,57.45,197.11
0.55,2,-0.91,-180.95,50.08,250.13
0.17,1.7,-1.02,-153.66,15.82,238.89
-0.72,0.71,0.26,-138.02,56.92,176.69
-2,-0.5,-0.36,3.08,230.22,125.63
-1.42,0.1,-2,27.31,45.14,-24
-0.27,-0.03,0.49,-31.18,-59.21,-77.03
0.42,-0.02,0.37,-12.31,2.35,-53.69
0.13,0.04,0.01,0.82,6.19,-27.96
0.1,0.01,-0.08,20.23,-50.72,-47.14
0.43,0.14,-0.21,-5.47,-88.22,8.82
0.59,0.02,0.03,-6.73,-53.07,46.31
0.46,-0.1,0.16,-4.19,-50.95,41.73
0.21,0.03,0.27,2.35,-27.68,29.43
-0.06,0.05,0.29,16.88,-15.8,22.33
0.01,0.09,0.16,3.74,-15.74,19.24
0.2,0.07,0.19,0.11,-3.51,9.47
0.14,-0.05,0.19,-0.59,20.95,1.44
-0.05,-0.06,0.07,4.13,46.31,-12.57
-0.24,-0.04,-0.07,9.87,54.02,-24.56
-0.33,0.03,-0.1,2.19,56.19,-38.06
-0.34,0.07,0.02,-7.53,104.15,-55.25
-0.92,-0.18,-0.32,20.66,124.27,-78.76
-1.35,-0.29,-0.26,80.92,25.54,-151.04
-1.69,0.24,-1.19,128.67,-19.77,-250.14
0.54,1.44,0.23,74.6,-38.34,-189.93
-0.17,2,-2,67.92,-26.71,-82.75
-2,2,-1.82,164.1,7.78,-193.03
-1.27,2,-1.41,171.15,-117.91,-250.14
-0.06,2,-0.65,115.37,-139.05,-208.83
0.92,1.12,-0.39,57.69,-90.87,-135.6
-0.16,1.36,-0.04,34.21,-32.17,-52.29
-1.51,1.81,-0.4,2.08,-53.81,-36.79
-1.28,1.76,-0.57,-18.07,-57.48,-21.71
-0.7,1.06,-0.64,-13.04,7.79,6.71
-0.58,1.06,-0.7,-2.73,40.57,40.09
-0.95,1.49,-0.46,-12.3,45.41,74.6
-0.97,1.6,-0.28,-43.18,51.79,121.88
-0.46,1.42,-0.26,-41.5,94.74,126.05
-0.59,1.96,-0.58,-131.11,99.82,180.26
-0.77,2,-0.67,-159.73,89.98,222.24
-1.54,2,-0.68,-168.92,52.79,201.25
-0.44,2,-0.91,-157.36,-42.11,194.93
0.6,1.57,-0.91,-124.69,-37.24,192.81
0.39,0.67,-0.65,-84.18,5.67,209.4
-0.63,0.45,0.8,-98.32,34.04,160.68
-2,-0.52,0.09,2.1,109.79,61.98
-0.96,-0.51,-1.3,64.12,6.76,-11.3
0.09,0.52,-0.05,-9.75,22.98,-68.46
0.36,0.03,0.25,-9.19,51.35,-57.69
-0.11,-0.21,0.05,8.85,26.56,-61.3
-0.35,-0.25,0,29.74,-36.79,-46.23
0.33,0.3,-0.12,4.64,-77.69,-23.59
0.46,0.2,-0.07,-13.03,-65.73,26.52
0.27,-0.06,0.07,-15.62,-66.79,45.18
0.25,-0.03,0.17,-6.7,-75.89,31.73
0.17,0,0.26,-1.25,-44.31,13.97
0.04,0.01,0.18,0.5,-2.47,3.9
0.02,0.06,0.09,-5.22,17.85,-6.56
-0.06,0.02,0.11,-5.07,13.07,-14.4
-0.06,0.04,0.1,-4.18,8.43,-19.92
-0.19,0.01,0.03,3.5,13.15,-23.53
-0.37,-0.06,-0.08,5.63,0.59,-33.85
-0.41,-0.08,-0.16,32.37,-11,-58.96
-0.6,-0.02,-0.24,54.01,-31.15,-88.65
-1.27,-0.02,-0.04,108.14,-37.04,-115.71
0.28,1.53,-0.27,105.51,-131.56,-202.5
0.21,1.89,-1.32,118.82,-117.28,-131.92
-0.23,2,0.19,140.45,47.91,-184.39
-1.25,2,-0.59,192.11,45.82,-250.14
-1.38,2,-1.39,130.95,-7.93,-190.32
-0.62,1.68,-0.42,86.58,-153.83,-176.13
0.06,1.45,-0.15,43.31,-143.32,-87.49
-0.42,1.59,-0.13,17.81,-57.91,-20.48
-1.17,1.55,-0.46,-4.45,-16.03,-8.63
-1.24,1.81,-0.56,-12.98,7.9,12.27
-0.79,1.47,-0.35,-23.6,58.21,44.25
-0.63,1.38,-0.33,-36.31,94.81,79.8
-0.71,1.83,-0.18,-54.48,98.42,96.63
-1.18,1.04,-0.54,-108.41,62.46,197.34
-0.47,1.57,-0.65,-104.45,50.47,180.11
-0.98,2,-0.91,-176.5,50.53,238.71
-0.83,2,-0.84,-174.42,40.55,202.93
0.2,2,-1.18,-151.41,-2.81,190.5
0.57,1.34,-1.24,-95.9,-16.72,204.39
0.35,0.7,-0.44,-73.72,88.55,202.34
-1.33,0.13,1.15,-108.95,191.4,192.56
-2,-1.36,-1.52,70.55,-44.46,66.68
-0.89,0.52,0.03,15.18,124.27,-74.24
0.34,-0.08,-0.03,15.33,37.09,-84.09
0.12,-0.02,0.09,6.89,-5.66,-62.84
-0.52,-0.21,-0.22,7.34,-58.9,-30.74
0.16,-0.07,-0.17,15.64,-154.28,3.15
0.8,0.24,-0.07,4.63,-154.67,32.5
0.56,0.1,0.15,-3.89,-86.37,44.61
0.25,0.1,0.29,-9.37,-37.79,30.91
0.03,0.08,0.33,-16.47,9.6,7.68
-0.11,-0.07,0.26,-12.31,35.01,-10.06
-0.14,-0.07,0.13,-5.24,43.77,-21.21
-0.1,0.03,0.03,-5.43,40.53,-27.35
-0.06,0.09,0.05,-10.88,52.27,-31.5
-0.07,0.08,0.12,-11.15,60.98,-32.63
-0.25,0.01,0.04,-7.79,40.98,-35.8
-0.47,-0.13,-0.07,8.84,27.42,-56.47
-0.67,-0.14,-0.14,29.56,0.73,-90.17
-0.65,-0.13,-0.3,57.24,-36.37,-125.09
-2,-0.51,-0.32,145.15,-64.53,-180.8
1.14,1.65,-1.64,151.27,-154.96,-250.14
-1.59,2,-1.09,67.63,15.11,-69.73
-1.72,2,-1.13,136.79,-14.07,-240.18
-0.35,2,-0.68,138.57,1.42,-202.83
-0.97,1.2,-0.96,118.49,-34.33,-46.95
-0.91,1.67,-0.31,124.57,-67.63,-84.05
-1.34,2,-0.47,49.87,-105.55,-77.33
-0.89,1.94,-0.28,20.37,-63.05,-56.17
-0.49,1.45,-0.36,9.11,12.67,-18.32
-0.73,1.26,-0.37,3.5,37.44,14.37
-1.07,1.48,-0.56,-25.54,-3.05,45.12
-1,1.63,-0.41,-41.84,-3.06,69.73
-0.55,1.44,-0.21,-50.52,70.53,84.95
-0.13,1.53,-0.21,-77.46,142.38,107.85
-0.98,2,-0.64,-170.25,115.89,139.8
-1.11,1.63,-0.73,-183.81,57.21,230.31
-1.3,2,-0.99,-173.81,19.06,189.18
-0.13,2,-1.03,-158.73,-8.42,199.95
1.14,1.72,-1.17,-130.44,19.37,194.73
0.16,1.12,-0.73,-49.67,66.92,227.05
-0.85,0.34,1.17,-91.22,68.48,250.13
-2,-1.41,0.3,40.78,65.72,64.16
-0.53,-0.78,-1.23,78.44,103.18,-25.27
-0.09,0.25,-0.04,7.63,64.83,-101.39
0.59,0.17,0.42,-7.42,83.57,-103.92
-0.43,-0.04,-0.07,-2.7,11.76,-54.51
-0.32,-0.21,-0.06,20.03,-106.32,-6.44
0.58,0.2,-0.12,7.21,-161.61,27.22
0.64,0.16,0.06,-2.92,-97,52.44
0.31,0.13,0.18,-15.13,-43.41,38.5
0.02,0.08,0.24,-25.77,10.02,14.71
-0.28,-0.08,0.21,-20.78,46.35,-6.57
-0.26,-0.08,0.07,-8.05,48.82,-19.56
-0.01,-0.01,0.05,-4.21,37.89,-22.61
0.14,0.03,0.1,-12.4,49.29,-21.15
0.1,0.06,0.06,-17.78,79.03,-24.5
-0.3,0.07,0,-27.81,71.56,-28.88
-0.66,-0.14,-0.13,-13.53,22.26,-38.13
-0.84,-0.31,-0.24,22.9,-13.18,-65
-0.98,-0.12,-0.01,58.68,-42.26,-116.07
-1.27,-0.11,-0.4,121.92,-22.29,-205.98
0.7,1.62,-0.97,181.58,-85.34,-250.14
-0.34,2,-1.89,95.27,20.47,-135.04
-0.06,1.48,-2,130.69,-20.51,-122.1
-2,2,-1.33,162.4,-59.29,-110.66
-2,2,-0.36,172.48,-7.07,-162.4
-0.14,2,0.26,104.81,-101.74,-154.88
0.71,1.31,-0.07,-2.27,-119.81,-100.95
-0.39,1.37,-0.56,-24.15,-111.82,0.5
-0.91,2,-0.62,7.99,-54.02,-0.89
-1.16,1.63,-0.54,16.32,39.06,-24.45
-0.52,1.37,-0.59,29.36,71.05,-6.41
-0.51,0.94,-0.6,-12.53,26.63,53.53
-0.91,1.13,-0.55,-21.02,19.03,95.16
-1.08,1.46,-0.44,-27.02,37.03,115.37
-0.76,1.65,-0.35,-81.5,79.06,129.87
-0.81,1.68,-0.31,-143.25,82.59,183.69
-1.22,2,-0.75,-140.31,71.43,181.92
-1.15,2,-0.51,-145.57,8.87,171.09
0.32,2,-0.39,-148.97,-0.5,175.15
0.82,1.58,-0.84,-114.71,45.34,183.31
-0.15,1.17,-0.4,-146.58,12.66,181.32
-1.33,-0.43,1.27,-87.64,37.75,160.34
-2,-1.51,-1.46,124.79,45.58,39.7
-0.12,-0.09,-0.8,17.8,-10.18,-29.33
0.69,0.44,0.33,-19.96,68.89,-84.31
-0.05,-0.01,0.1,-7.18,82.21,-60.66
-0.76,-0.45,-0.06,39.95,-15.24,-61.96
0.05,0.21,-0.17,35.52,-126.34,-21.7
0.79,0.36,-0.01,8.22,-137.22,41.64
0.64,0.06,0.1,-3.61,-85.44,47.5
0.28,-0.1,0.19,-8.24,-34.46,33.11
0.04,0.07,0.29,-9.22,-3.26,13.86
-0.09,0.02,0.22,-7.5,28.79,4.38
-0.13,-0.02,0.12,-3.66,50.47,-10.24
-0.11,0,0.04,0.13,48.75,-24.85
-0.12,0,0.02,1.46,40.79,-25.59
-0.1,0.03,-0.08,-0.08,43.83,-26.93
-0.17,0.03,-0.05,-7.28,63.5,-34.26
-0.36,0,0.1,-17.02,76.76,-49.16
-0.79,-0.2,-0.17,16.67,60.59,-79.96
-1.55,-0.16,-0.1,86.27,6.11,-143.1
-1.25,0.7,-0.4,113.09,-127.34,-221.44
0.59,2,-0.51,151.89,-58.75,-250.14
0.76,2,-0.81,134.22,92.81,-149.31
-1.18,1.71,-2,212.31,39.94,-169.73
-2,2,-0.92,151.28,-115.24,-121.37
-0.57,1.88,-0.12,92.15,-173.66,-92.6
-0.5,1.9,-0.3,38.66,-131.18,-62.85
-0.57,1.79,-0.32,13.9,-16.53,-59.37
-1.03,1.13,-0.74,-2.35,5.31,2.25
-1.11,1.04,-0.94,0.88,-33.11,33.46
-0.96,1.6,-0.66,4.02,-28.76,57.77
-0.49,1.63,-0.38,-16.6,26.63,92.56
-0.52,1.4,-0.45,-36.97,101.35,108.56
-0.75,1.71,-0.49,-103.89,74.24,164.05
-0.79,2,-0.38,-141.93,46.56,207.21
-1.2,2,-0.8,-146.15,24.5,176
-0.55,2,-0.71,-144.05,-18.92,185.16
0.75,2,-0.96,-132.84,-39.63,186.17
1.24,1.21,-0.87,-55.61,-59.6,188.27
-0.09,0.9,-0.18,-74.91,-12.29,250.13
-1.45,0.54,1.46,-152.98,205.98,162.34
-2,-1.03,-1.88,121.72,-6.95,41.62
-0.25,-0.4,0.03,-8.99,154.85,-93.26
0.32,-0.01,0.31,-6.49,148.55,-106.62
0.28,0.11,0.14,-21.95,119.33,-86.64
-1,-0.16,-0.06,-17.94,-2.53,-38.11
-0.47,-0.18,-0.07,18.37,-177.42,-3.21
0.61,0.15,-0.08,17.91,-211.23,26.27
0.77,0.22,0,0.68,-132.3,50.96
0.45,0.1,0.16,-15.55,-63.66,38.86
0.25,0,0.21,-23.5,0.5,11.24
0,-0.03,0.21,-21.77,48.22,-8.37
-0.12,-0.08,0.14,-11.13,60.3,-21.37
-0.16,-0.08,0.05,-0.79,43.27,-25.27
-0.14,0,-0.02,0.3,26.69,-30.49
-0.17,0.05,-0.01,-0.85,67.66,-39.85
-0.48,-0.02,-0.16,-9.12,69.24,-53.81
-0.74,-0.31,-0.34,35.48,40.37,-91.51
-0.99,-0.29,-0.07,96.63,-31.86,-137.56
-1.83,0.36,-2,103.72,-58.28,-184.91
0.29,1.91,-0.12,134.32,-141.37,-208.37
-1.23,2,-2,129.86,-89.79,-109.17
-1.75,2,-2,162.72,-92.49,-211.65
-0.44,2,0.05,180.5,-90.92,-202.23
-0.39,1.27,0.37,107.08,-84.76,-105.82
-0.08,1.9,0.19,75.1,-68.74,-109.44
-0.8,2,0.17,12.6,-56.02,-75.4
-0.65,1.57,-0.29,-34.45,-43.47,-17.32
-0.78,1.41,-0.59,-26.33,-16.91,14.46
-0.71,1.4,-0.53,-24.41,22.73,21.71
-1,1.27,-0.4,-36.87,74.92,80.02
-0.91,1.48,-0.37,-49.21,89.02,90.26
-0.7,1.57,-0.41,-78.34,95.37,109.88
-0.8,1.76,-0.64,-146.25,75.24,162.46
-0.81,2,-0.83,-159.37,42.27,205.16
-1.06,2,-0.91,-158.88,43.75,191.66
-0.29,2,-0.74,-156.31,25.45,187.14
0.76,1.56,-0.8,-122.24,2.16,185.83
0.42,0.81,-0.54,-102.69,74.24,202.49
-0.86,0.15,0.79,-137.74,50.68,205.05
-2,-0.94,-0.42,73.5,73.53,52.81
-0.88,-0.17,-1.15,47.85,-55.51,-0.09
0.23,0.39,0.21,-0.78,1.73,-63.54
0.38,0.06,0.14,-14.68,10.11,-61.29
-0.01,-0.18,0.26,4.18,33.89,-63.03
-0.33,-0.12,0,31.5,-21.92,-35.42
0.43,0.24,-0.24,8.9,-90.91,15.18
0.51,0.12,0.01,-0.84,-89.51,50.1
0.33,-0.05,0.08,-0.77,-79.34,50.8
0.2,-0.01,0.16,0.55,-40.08,31.48
0.03,0.02,0.19,-0.39,-7.75,18.23
0.02,0.01,0.1,-2.24,27.1,3.95
0,-0.05,0.02,-2.12,49.82,-11.52
-0.12,-0.03,0.07,-4.23,70.89,-25.27
-0.41,0,0.04,4.83,66.84,-31.73
-0.48,0.01,-0.14,11.05,57.94,-41.47
-0.43,-0.07,-0.08,23.73,42.83,-66.16
-0.46,-0.06,-0.08,50.37,43.27,-105.68
-1.36,0.12,-0.1,51.4,108.47,-178.4
0.39,1.51,-0.44,122.45,-94.03,-232.34
0.77,2,-0.29,85.95,-143.12,-119.37
0.2,2,-0.28,118.82,-21.34,-80.49
-1.07,2,-1.14,165.56,-5.01,-145.95
-1.3,2,-2,173.38,-47.73,-147.03
-0.52,2,-0.17,133.18,-113.13,-134.66
0.62,1.61,0.19,62.33,-94.82,-114.6
-0.13,1.07,-0.04,16.56,-17.44,-48.5
-1.11,1.16,-0.51,-26.24,-28.21,-1.89
-1.09,1.21,-0.86,-27.68,-16.44,31.34
-0.47,1.2,-0.85,-10.03,52.56,28.63
-0.67,1.23,-0.6,-24.64,81.6,63.31
-0.86,1.52,-0.29,-71.41,43.27,121.1
-0.8,1.86,-0.21,-123.7,3.46,158.32
-0.95,2,-0.47,-159.99,12.06,178.55
-0.86,2,-0.61,-181.95,40.94,161.95
-0.22,2,-1.01,-177.35,44.43,181.88
0.67,2,-1.33,-151.9,21.11,214.42
0.99,1.28,-1.11,-71.7,-78.42,203.31
-0.25,0.48,-0.2,-79.22,73.37,250.13
-2,-0.1,1.75,-105.95,219.97,122.95
-1.08,-0.05,-2,71.76,11.69,13.79
-0.06,-0.08,0.58,7.75,159.63,-64.05
0.49,0.03,-0.17,-14.56,90.34,-114.25
-0.09,-0.06,0.11,-14.63,32.21,-53.85
-0.94,-0.23,-0.11,4.63,-101.22,-9.26
0.18,-0.01,-0.15,27.73,-208.67,26.48
0.86,0.18,0.04,15.18,-165.27,38.55
0.59,0.12,0.16,-2.66,-76.46,35.5
0.17,0.07,0.18,-14.69,-11.35,12.53
-0.03,0,0.13,-20.48,39.59,-12.5
-0.17,-0.08,0.07,-13.81,60.34,-28.74
-0.22,-0.09,0.03,-4.86,53.14,-37.47
-0.18,-0.02,0.04,1.09,32.54,-40.76
-0.12,0.04,0.07,-0.6,20.05,-42.16
-0.06,0.06,0,-1.07,17.66,-40.45
-0.27,-0.02,-0.11,-2.06,-2.3,-42.4
-0.52,-0.17,-0.26,31.55,-25.48,-55.98
-0.87,-0.27,0.07,70.45,-39.13,-89.82
-2,-0.46,-1.13,93.43,-12.22,-159.86
0.21,2,-0.82,71.95,-189.23,-250.14
0.19,2,0.31,72.34,79.24,-168.52
-0.29,1.84,-1.23,140.73,47.66,-163.49
-1.79,2,-1.19,147.5,6.08,-208.71
-0.94,2,-0.5,108.81,-74.27,-134.42
-0.15,1.58,-0.29,49.2,-122.17,-92.29
-0.42,1.42,-0.04,1.09,-94.56,-26.34
-0.87,1.3,-0.66,-11.57,-55.28,-15.25
-1.03,1.57,-0.92,15.47,-11.8,-16.94
-0.62,1.65,-0.68,32.96,41.07,1.81
-0.54,1.66,-0.4,19.59,75.54,41.68
-0.84,1.54,-0.41,-15.21,51.02,80.8
-1.09,1.56,-0.53,-36.13,9.69,99.77
-1,1.9,-0.44,-73.44,6.95,119.98
-0.64,2,-0.17,-146.4,26.48,184.06
-0.48,2,-0.52,-161.2,86.31,207.29
-1.17,2,-0.88,-148.61,51.81,174.69
-0.45,2,-0.96,-129.41,0.64,165.49
0.28,0.99,-0.77,-116.24,25.21,162.15
-0.96,0.5,0.45,-111.84,-45.59,160.24
-1.09,-0.46,0.67,-84.4,-38.39,134.49
-1.87,-0.94,-0.66,67.76,33.02,27.53
-0.14,0.08,-0.67,49.18,31.78,-35.65
0.65,0.31,0.15,-13.27,98.4,-46.78
-0.11,-0.2,0.08,-9.09,126.64,-37.38
-0.5,-0.34,-0.07,19.78,39.09,-44.89
-0.22,0.05,0.07,40.16,-24.89,-10.53
0.38,0.26,0,12.56,-37.82,12.92
0.29,0.04,0.05,-2.44,-42.53,33.47
0.13,-0.03,0.11,-0.95,-48.16,29.5
0.14,0.02,0.14,0.45,-16.83,18.7
0.14,-0.01,0.13,-3.83,25.22,9.54
0.05,-0.01,0.07,-6.78,44.77,-1.94
-0.04,0.05,0.01,-9.01,51.11,-9.74
-0.24,0.03,0.07,-10.08,56.69,-11.27
-0.48,-0.05,-0.03,-6.92,39.41,-19.8
-0.54,-0.17,-0.24,10.39,21.86,-43.18
-0.55,-0.11,-0.15,30.12,12.23,-74.89
-1.36,-0.12,-0.06,42.82,56.87,-154.89
-1.33,0.24,-0.42,103.56,-43.96,-205.43
-0.67,2,-0.48,201.63,-72.2,-250.14
-0.12,2,-1.6,109.47,-79.7,-218.71
0.42,2,-2,140.76,-14.51,-141.69
-1.22,1.43,-0.62,137.27,31.52,-90.95
-1.94,1.86,-1.26,136.95,-2.55,-90.18
-1.46,2,-0.7,101.37,-161.24,-95.82
-0.07,1.61,-0.64,25.01,-169.4,-45.99
-0.31,1.25,-0.59,15.41,-86.18,21.92
-0.62,1.52,-0.82,47.51,33.69,35.05
-1.36,1.9,-0.74,42.34,35.5,51.68
-0.84,1.87,-0.22,7.46,12.08,78.4
-0.51,1.65,0,-35.58,37.3,104.3
-0.62,1.82,0,-107.42,63.55,124.56
-0.85,2,-0.17,-161.06,52.58,172.01
-1.04,2,-0.48,-179.73,77.56,161.1
-0.83,2,-0.83,-185.02,60.67,151.52
0.34,2,-1.26,-174.68,42.02,175.1
0.68,1.52,-1.5,-122.29,59.85,193.28
-0.03,0.85,-0.64,-104.99,34.34,200.07
-1.09,0.13,1.15,-108.57,-19.07,204.27
-2,-0.94,0.01,21.04,63.76,60.85
-0.41,0.05,-1.75,38.08,93.62,5.4
-0.01,0.27,0.25,-25.47,112.79,-67.55
0.22,0.01,0.33,-19.64,85.24,-69.94
-0.22,-0.19,0.11,-1.01,50.18,-58.53
-0.45,-0.2,-0.2,25,-57.92,-26.95
0.44,0.24,-0.32,4.6,-156.44,21.6
0.53,0.11,-0.02,-5.73,-126.92,55.27
0.28,-0.05,0.13,-2.94,-111.84,51.79
0.14,0.05,0.22,-4.43,-91.34,32.44
0.13,0.03,0.32,-6.76,-47.77,18.85
0.17,0.01,0.23,-9.18,8.19,5.55
0.14,0,0.1,-12.14,46.92,-13.43
-0.03,0.01,0.03,-8.99,71.63,-24.89
-0.31,0,0.03,-5.22,74.11,-33.24
-0.41,0,-0.08,-1.78,68.3,-47.93
-0.5,-0.13,-0.02,0.26,91.89,-70.14
-0.9,-0.27,-0.17,39.88,84.26,-115.08
-1.64,-0.2,-0.17,131.14,19.64,-177.24
-0.01,1.68,-0.45,92.97,-96.75,-246.42
1.54,2,-1.06,110.32,-86.65,-112.1
-0.43,2,-0.68,131.13,63.21,-142.99
-2,2,-1.12,168.5,-75.34,-204.1
-0.94,2,-0.91,182.03,-136.45,-141.81
0.74,1.55,-0.04,101.98,-115.95,-139.84
0.42,1.09,0.24,52.58,-25.04,-67.78
-0.88,1.61,-0.25,14.31,-20.02,-25.91
-1.57,1.79,-0.78,-18.19,-51.66,30.73
-1.01,1.58,-0.94,-11.32,-10.6,26.99
-0.39,1.53,-0.61,-7.29,49.08,45.87
-0.15,1.66,-0.42,-29.29,90.02,80.69
-0.53,1.86,-0.32,-106.4,98.98,141.7
-1.06,1.99,-0.68,-140.06,77.97,188.82
-1.45,2,-0.84,-142.97,48.71,156.24
-0.62,2,-0.54,-153.35,46.72,159.04
0.28,1.97,-0.63,-146.6,21.5,182.78
0.44,1.7,-1.04,-104.71,-17.34,209.51
-0.25,0.95,-0.35,-80.23,-88.81,186.22
-0.98,0.23,1.09,-98.24,-45.43,159.74
-2,-0.97,-0.17,36.88,40.62,53.25
-0.44,0.13,-2,28.18,63.83,-33.78
0.54,0.06,0.54,-20,36.06,-68.84
0.66,0.13,0.61,-12.04,133.39,-72.97
-0.53,-0.25,-0.24,16.89,69.21,-72.45
-0.39,-0.13,-0.31,27.71,-97.8,-31.92
0.8,0.22,-0.09,14.6,-134.11,26.29
0.68,0.14,0.09,4.62,-65.21,41.25
0.11,-0.05,0.23,-2.8,-35.5,32.92
-0.05,-0.01,0.25,-3.78,-28.44,11.69
-0.05,0,0.16,-6.09,1.91,-1.96
-0.03,-0.07,0.11,-1.56,26.79,-16.4
-0.05,-0.05,0.06,10.38,34.92,-28.73
-0.13,0.06,0.1,1.85,42.18,-36.12
-0.11,0.03,0.09,-6.02,57.73,-37.32
-0.2,0.04,-0.14,-20.65,60.59,-46.23
-0.33,-0.21,-0.21,11.83,68.21,-54.03
-0.64,-0.13,-0.05,13.32,92.63,-108.24
-2,-0.59,-1.8,157.6,39.21,-159.91
0.06,1.8,0.87,94.59,-182.21,-250.14
-0.11,2,-1.33,109.47,-20.99,-170.51
-0.61,2,-2,117.31,55.66,-192.22
-2,2,-0.39,135.43,-1.38,-221.93
-1.42,2,-0.95,114.82,-157.77,-166.55
0.79,1.49,0.3,44.95,-108.88,-135.16
0.4,0.78,0.03,23.57,19.66,-50.85
-1.38,1.35,-0.86,-2.47,-17.24,7.94
-2,1.63,-1.33,5.6,-86.52,26.06
-0.68,1.5,-0.9,14.34,-51.28,30.44
0.11,1.17,-0.42,22.21,74.62,63.97
-0.06,1.37,-0.29,2.24,145.15,111.95
-1.2,1.99,-0.51,-90.84,99.89,175.85
-1.97,2,-0.65,-112.26,-18.76,191.66
-1.39,2,-0.55,-125.79,-36.76,165.88
-0.11,2,-0.4,-143.79,-9.52,159.64
0.78,2,-0.72,-130.5,-2.17,181.21
0.37,1.66,-0.36,-98.45,-4.39,212.61
0.03,0.83,0.1,-103.27,-77.71,209.26
-0.09,0.36,0.65,-74.11,-20.94,197.56
-2,-0.75,-0.64,36.92,193.2,73.31
-0.9,-0.09,-1.79,-25.82,64.18,-61.01
0.85,0.07,1.08,-16.21,63.31,-44.04
0.6,0.02,0.03,-28.18,137.27,-62.43
-0.51,-0.24,-0.2,-0.7,75.37,-52.37
-0.68,-0.11,-0.11,11.71,-76.27,-4.81
0.46,0.14,0.02,9.53,-146.21,37.86
0.65,0.04,0.11,1.89,-94.9,49.24
0.33,0.11,0.18,-9.34,-52.3,37.23
0.05,0.07,0.24,-15.94,-10.74,21.08
-0.01,-0.04,0.2,-15.64,26.56,6.38
-0.02,-0.04,0.11,-10.25,41.32,-5.77
-0.12,-0.04,0.05,-6.11,43.31,-16.58
-0.19,0.01,0.03,-8.47,46,-24.18
-0.23,0.02,0.01,-8.98,68.76,-30.73
-0.49,-0.02,-0.07,-12.23,44.6,-40.94
-0.58,-0.18,-0.19,18.92,18.81,-63.37
-1.18,0.12,-0.07,44.87,22.55,-121.26
-1.82,0.07,-0.25,120.62,-132.63,-171.76
1.16,2,-1.66,64.51,-170.34,-220.51
-0.62,2,-1.21,79.03,3.4,-57.88
-1.59,2,-2,179.08,2.75,-227.23
-1.72,2,-1.25,175.09,-59.85,-219.27
-0.04,2,-0.58,103.77,-40.48,-147.43
0.26,1.48,0.2,85.4,-18.13,-125.69
-0.55,1.82,-0.05,31.35,1.7,-63.04
-1.39,1.71,-0.65,-15.27,-83.74,-13.24
-1.13,1.42,-1.06,-28.32,-141.69,20.5
-0.62,1.2,-0.75,-5.95,-62.17,28.83
-0.08,1.18,-0.49,12.4,73.51,53.76
-0.4,1.41,-0.41,-5.71,125.88,92.73
-0.98,1.7,-0.57,-65.44,88.63,126.62
-1.63,1.98,-0.57,-98.2,-1.78,171.16
-1.45,2,-0.53,-108.79,-51.84,170.23
-0.84,2,-0.49,-116.24,-43.12,168.73
0.24,2,-0.58,-114.53,-28.17,153.64
0.57,1.7,-0.64,-103.18,37.66,167.48
0.14,1.18,-0.42,-107.15,76.66,158.58
-0.71,0.1,0.48,-105.35,-34.79,146.73
-1.61,-0.52,0.38,-26.01,45.27,71
-1.31,-0.62,-1.1,56.73,86.99,-5.34
0.07,0.28,-0.23,-15.79,45.56,-30.78
0.27,-0.02,0.32,-8.05,73.01,-17.95
-0.27,-0.16,0,7.92,8.9,-17.11
-0.09,-0.1,-0.06,10.79,-60,-4.04
0.34,0.08,0.01,3.03,-51.29,10.04
0.26,0.09,0.04,-6.16,-53.71,27.19
0.14,0.01,0.14,-4.3,-55.55,26.66
0.15,0.05,0.21,-3.24,-26.74,20.31
0.14,0.02,0.15,-6.02,18.85,12.3
0.01,0.01,0.12,-9.49,37.95,3.18
-0.09,-0.01,0.1,-6.21,37.08,-4.24
-0.15,0,0.07,0.29,35.46,-8.38
-0.26,0.01,-0.08,3.6,32.44,-17.46
-0.2,-0.05,-0.06,6.95,43.03,-34.51
-0.42,-0.16,-0.09,12.66,67.27,-67.07
-1.08,-0.21,-0.21,52.44,96.34,-116.8
-2,0.01,-0.69,145.66,-85.29,-179.85
0.7,2,-0.43,171.11,-144.31,-248.6
-1.35,2,-2,87.15,-71.51,-77.02
-0.22,2,-0.7,120.1,-74.08,-202.66
-0.31,2,-1.22,116.86,7.41,-158.69
-0.81,1.64,-0.7,93.72,-37.47,-63.51
-0.9,1.71,-0.58,56.02,-36.94,-71.21
-1,2,-0.68,24.5,-72.79,-38.36
-0.98,1.67,-0.57,-17.95,-59.89,4.95
-0.34,1.47,-0.66,-7.65,13.66,21.99
-0.25,1.91,-0.58,-21.19,68.28,68.13
-0.54,2,-0.36,-92.08,77.19,110.4
-0.79,2,-0.1,-131.62,67.05,161.29
-1.15,2,-0.26,-161,85.05,140.26
-0.7,2,-0.74,-161.29,59.76,129.94
0.04,2,-1.07,-160,43.18,146.56
0.58,1.79,-1.16,-130.13,64.11,179.39
0.33,1.2,-0.82,-105.15,3.28,190.16
-0.43,0.41,0.28,-94.68,-29.44,201.4
-2,-0.64,0.58,-12.47,114.11,91.99
-1.29,-0.93,-1.62,46.86,141.61,-3.07
-0.24,0.35,-0.02,-2.39,74.58,-94.02
0.22,0.12,0.23,-9.94,41.22,-75.44
-0.08,-0.04,0.2,5.18,-11.55,-42.17
-0.08,-0.17,-0.18,32.89,-114.24,-6.2
0.75,0.19,-0.36,9.08,-153.26,34.83
0.65,0.11,0.05,1.27,-92.59,64.99
0.24,0,0.18,1.48,-72.23,57.76
0.03,0.05,0.32,-1.62,-35.25,34.95
-0.01,-0.04,0.34,5.89,3.37,19.05
0.14,-0.08,0.15,4.41,33.37,0.99
0.21,-0.03,0.03,2.82,60.48,-15.37
-0.02,0.03,0,-1.49,84.35,-24.54
-0.28,0.03,-0.03,-6.36,91.77,-29.9
-0.46,-0.02,-0.09,-6.34,76.57,-39.93
-0.53,-0.07,-0.09,-1.02,73.16,-55.49
-1.12,-0.21,0.33,47.64,53.94,-81.51
-2,-0.51,-1.88,169.47,-2.15,-174.24
1.1,1.75,-0.68,98.43,-250.14,-250.14
-0.23,2,-1.05,85.14,85.47,-99.5
-0.86,2,-0.94,123.63,62.89,-245.79
-2,2,-2,165.26,-33.04,-153.36
-0.97,2,-0.76,147.58,-171.79,-170.13
0.66,1.59,-0.07,99.02,-104.89,-152.27
0.79,1.53,0.1,42.73,15.95,-57.1
-0.61,1.37,-0.27,-5.02,24.77,13.53
-1.52,1.58,-1.05,-10.57,0.44,55.49
-1.08,2,-0.79,-19.8,1.42,52.11
-0.45,1.66,-0.28,-68.67,19.2,90.44
-0.42,1.82,0.03,-115.98,36.42,152.01
-1.02,2,-0.48,-141.14,37.41,174.62
-1.14,2,-0.99,-127.9,-4.93,156.06
-0.28,2,-0.89,-124.76,-39.02,167.04
0.91,1.66,-0.59,-106.26,-34.39,180.19
0.86,1.36,-0.58,-74.6,-42.98,206.78
-0.23,0.86,0.15,-77.1,-31.45,236.12
-1.38,-0.15,0.93,-80.7,192.96,134.42
-1.96,-1.02,-1.62,51.11,132.12,12.39
-0.53,0.05,0.08,-0.89,123.4,-77.09
0.12,0.03,0.07,-4.69,107.69,-92.96
-0.18,-0.05,0.02,-1.01,39.22,-71.83
-0.74,-0.14,-0.19,17.79,-70.73,-42.25
0.03,0.03,-0.21,26.84,-177.34,2.07
0.64,0.17,0.01,12.31,-189.21,31.5
0.63,0.11,0.16,4.8,-154.58,38.98
0.49,0.1,0.25,-8.93,-88.08,27.99
0.25,0.04,0.29,-17.23,-14.11,11.12
0.01,0.03,0.22,-20.11,26.23,1.85
-0.15,-0.06,0.14,-14.42,36.62,-13.79
-0.17,-0.03,0.03,-9.43,35.61,-21.31
-0.15,-0.02,-0.02,-8.31,53.5,-27.46
-0.28,-0.01,-0.09,-13.73,53.45,-39.73
-0.48,-0.25,-0.25,23.17,65.3,-66.32
-0.98,-0.23,-0.12,79.56,54.94,-111.69
-2,-0.1,-1.46,126.93,17.56,-188.22
-0.23,2,0.52,121.39,-98.66,-250.14
-0.16,2,-2,103.69,-96.89,-116.94
0.34,2,-1.84,111.42,23.82,-173.53
-1.28,2,-1.3,143.34,49.51,-134.27
-2,2,-0.37,127.05,-116.4,-101.65
-0.5,2,-0.13,110.24,-183.79,-82.89
0.73,1.96,0.41,26.92,-47.31,-47.95
-0.11,1.11,-0.23,-15.9,72.89,19.3
-2,1.94,-1.06,-27.82,54.13,46.39
-1.3,2,-0.54,-35.12,-40.44,36.22
-0.11,1.45,-0.5,-76,47.74,80.98
-0.25,1.52,-0.32,-122.86,99.99,153.07
-1.13,2,-0.66,-140.86,104.63,173.18
-1.39,2,-0.9,-135.18,42.85,166.94
-0.69,1.97,-0.82,-130.19,15.99,157.57
0.07,1.64,-0.86,-105.27,-7.27,149.65
-0.03,1.16,-0.62,-83.66,-57.63,147.79
-0.23,0.66,-0.15,-56.53,-156.31,166.12
-0.46,0.16,0.96,-64.48,-130.56,153.63
-2,-0.5,0.3,20.96,-17.52,46.45
-0.26,-0.21,-1.24,59.3,-7.08,10.22
0.95,0.01,0.17,-16.88,97.54,-26.49
0.57,0.07,0.19,-27.36,189.58,-52.81
-0.56,-0.22,-0.08,-7.79,127.18,-47.18
-0.78,-0.21,0.05,19.85,-10.44,-14.25
0.27,0.25,-0.1,8.44,-124.63,21.36
0.45,0.19,0.08,0.49,-96.64,44.08
0.21,-0.05,0.13,-3.54,-69.52,38.69
0.12,0.02,0.16,-7.43,-31.16,17.58
0.13,0.06,0.18,-16.83,26.87,1.78
0,-0.04,0.13,-17.4,65.13,-15.73
-0.18,-0.08,0.06,-8.82,71.96,-31.81
-0.25,-0.02,0.09,-4.44,69.67,-45.05
-0.26,0,0.05,-3.23,88.55,-54.66
-0.31,-0.06,-0.07,6.11,98.93,-75.12
-0.7,-0.07,0.11,51.08,128.18,-120.92
-2,-0.25,-1.7,108.85,19.62,-192.74
-0.35,1.9,-0.66,118.89,-100.8,-250.14
-1.36,2,-1.21,106.76,-66.7,-222.79
0.35,2,-0.86,132.42,-46.6,-250.14
0.7,1.78,-0.42,92.09,-6.4,-198.2
0.1,0.69,-0.58,63.66,-15,-67.27
-0.89,1.73,-0.61,55.46,-43.87,21
-2,2,-0.94,45.62,-66.08,-26.83
-1.36,2,-0.92,38.87,-86.36,-49.47
-0.04,1.09,-0.11,-6.27,-34.95,3.01
0.19,0.98,-0.4,20.13,66.89,58.24
-1.29,1.93,-0.85,-12.56,39.2,121.93
-1.59,1.95,-0.56,-24.97,-69.6,113.37
-0.57,1.62,-0.53,-47.95,-57.99,113.85
-0.28,1.98,0,-122.24,51.31,176.31
-0.75,2,-0.34,-131.95,94.31,157.87
-0.94,2,-0.52,-131.31,14.28,125.53
0.08,1.95,-0.75,-109.37,-54.41,110.95
0.97,1.07,-0.72,-79.21,53.82,150.8
0.19,0.49,0,-118.72,81.21,205.19
-0.87,-0.34,0.76,-127.6,63.59,162.47
-2,-0.63,-0.65,66.9,82.21,68.28
-0.92,0.2,-0.98,13.56,23.05,11.05
0.29,-0.07,0.44,-24.53,36.43,-14.41
0.3,-0.3,0.1,-2.49,55.79,-28.51
-0.14,-0.11,-0.08,-4.25,38.38,-17.11
-0.06,0.09,-0.06,2.21,-37.02,10.33
0.48,0.2,-0.05,-8.44,-60.11,54.11
0.28,0.06,0.07,-12.86,-43.55,70.08
0.14,0.04,0.15,-9.69,-33.93,59.02
0.09,0.04,0.16,-9.5,0.67,41.02
0.05,-0.04,0.09,-6.84,39.63,25.08
-0.06,-0.03,-0.01,2.37,57.83,7.15
-0.11,-0.02,0,1.92,57.56,-2.69
-0.18,0,-0.06,1.11,67.11,-12.61
-0.36,0,-0.08,-5.3,86.46,-29.29
-0.83,-0.19,-0.01,13.95,50.4,-50.8
-2,-0.16,-0.83,49.2,79.87,-141.94
0.46,1.31,-0.16,106.69,-156.76,-192.83
-0.23,2,-2,122.78,-2.47,-136.85
-1.17,2,-0.43,159.82,39.14,-206.44
-1.96,2,-1.75,195.35,-32.76,-238.76
-0.55,2,-0.66,171.31,-127.52,-162.27
0.77,1.28,-0.11,105.44,-155.93,-114.5
1,1.34,-0.53,77.02,-119.91,-13.24
-0.41,2,-0.72,49.3,-27.37,62.45
-1.58,2,-0.55,39.51,2.95,12.91
-0.63,2,-0.05,-3.75,14.38,34.64
-0.19,1.71,0.02,-72.17,61.13,82.89
-0.93,1.96,-0.08,-117.25,61.56,130.4
-1.4,2,-0.23,-139.16,16.57,135.89
-0.79,2,-0.54,-157.92,46.5,128.47
-0.02,2,-0.88,-166.09,99.73,131.82
0.31,1.8,-1.32,-131.56,71.28,146.24
0.07,0.97,-0.92,-89.47,2.28,175.61
-0.51,0.33,0.14,-60.98,-54.08,171.53
-1.06,0,1.06,-59.81,-35.53,121.95
-2,-0.9,-0.33,47.76,26.84,28.15
0.17,-0.11,-1.19,33.64,109.32,-49.59
0.49,0.26,0.09,-29,139.9,-68.78
0.03,-0.04,0.38,-12.62,155.18,-74.27
-0.73,-0.22,-0.05,20.9,96.07,-64.47
-0.53,-0.02,-0.19,25.08,-84.12,-22.4
0.43,0.22,-0.03,9.47,-133.95,21.04
0.52,0.09,0.03,-0.47,-105.08,38.13
0.32,-0.02,0.11,-7.08,-72.34,32.85
0.19,0.04,0.26,-9.04,-35.19,21.15
0.16,0.01,0.16,-6.63,5.82,10.13
0.16,-0.02,0.07,-13.6,48.66,-2.02
-0.04,-0.01,-0.03,-18.17,85.97,-18.22
-0.43,-0.04,-0.01,-21.87,100.17,-30.11
-0.63,-0.08,-0.1,-16.31,89.81,-49.95
-0.77,-0.17,-0.24,-0.1,93.63,-68.97
-1.37,-0.03,-0.3,43.74,18.73,-124.31
-1.5,0.51,-0.32,86.21,-32.08,-195.5
0.27,2,-1.37,121.18,-25.07,-211.76
-0.32,2,-0.84,108.06,64.12,-131.51
-2,2,-1.83,187.15,-15.32,-162.55
-1.79,2,-0.39,163.58,-150.7,-158.55
0.56,1.9,-0.35,96.57,-74.74,-118.82
0.21,1.68,0.21,69.72,-18.56,-46.36
-0.6,1.8,-0.12,10.47,-22.52,2.33
-1.17,1.94,-0.74,-5.95,-48.17,55.67
-0.8,1.98,-0.77,-13.22,-20.18,56.47
-0.3,1.93,-0.55,-56.59,30.27,84.53
-0.35,2,-0.11,-108.22,60.38,158.4
-0.95,2,-0.37,-130.76,52.83,172.85
-1.22,2,-0.54,-125.87,-14.53,151.1
-0.31,2,-0.91,-104.11,-68.37,142.37
0.6,1.65,-0.96,-98.57,-32.47,149.88
0.4,0.72,-0.76,-43.4,-37.84,179.88
-0.08,0.39,0.13,-66.09,-27.19,209.6
-0.84,0.11,1.07,-64.11,77.63,128.51
-2,-0.56,-0.4,27.34,32.98,52.47
-0.28,-0.19,-0.78,3.28,110.09,-46.67
0.06,-0.01,0.19,-26.19,146.63,-71.99
0,-0.18,0.13,-8.4,117.48,-87.11
-0.36,-0.12,0.07,2.74,70.44,-73.6
-0.54,0.04,-0.08,14.11,-45.84,-31.94
0.1,0.15,-0.05,17.87,-151.11,3.27
0.58,0.04,-0.04,16.02,-165.09,34.48
0.56,0.04,0.07,9.69,-123.73,39.05
0.43,0.08,0.12,-3.98,-42.22,27.5
0.15,0.1,0.16,-17.6,16.5,14.56
-0.19,-0.04,0.18,-18.74,44.53,-1.7
-0.46,-0.14,0,-2.45,55.75,-24.24
-0.61,-0.19,-0.2,13.56,30.27,-46.97
-0.56,-0.24,-0.17,39.55,21.12,-80.51
-1.21,-0.42,0,87.19,13.53,-136.85
-0.17,0.53,-0.37,128.53,36.39,-214.52
-0.08,2,-0.76,106.17,-98.02,-154.73
-0.8,2,-0.77,104.77,-19.79,-107.32
-1.36,2,-1.1,142.46,-25.89,-200.73
-1.81,2,-1.13,173.15,-85.17,-195.37
-0.3,1.28,-0.47,108.11,-114.79,-150.69
0.72,1.1,-0.26,80.97,-111.89,-106.16
0.03,1.35,-0.28,60.44,-15.02,12.97
-1.15,1.63,-0.58,34.18,-17.99,61.13
-1.71,2,-0.61,29.98,-16.05,44.31
-0.71,1.91,-0.13,6.7,5.14,55.56
-0.32,1.63,-0.07,-49.94,74.73,93.11
-0.63,1.68,-0.06,-122.89,63.65,149.4
-0.97,2,-0.56,-141.63,8.24,183.68
-1.05,2,-1.12,-115.56,-47.42,167.21
-0.92,2,-1.02,-110.17,-41.44,155.79
0.29,1.73,-0.58,-115.84,11.76,163.92
1.14,1.55,-0.44,-68.53,-8.27,171.47
0.3,0.97,-0.2,-64.9,-22.33,209.48
-0.19,0.22,0.57,-80.19,-22.11,205.39
-1.58,0.1,0.94,-80.65,203.82,59.11
-2,-0.73,-2,103.85,141.23,-0.85
-0.56,-0.19,-0.36,-28.34,71.81,-68.31
0.16,-0.09,0.41,-16.29,85.76,-84.85
0,-0.09,0.38,-2.11,109.29,-84.36
-0.62,-0.04,-0.19,29.92,-3.37,-58.16
0.06,0.12,-0.05,24.85,-132.26,-3.35
