aX,aY,aZ,gX,gY,gZ
-2,-0.31,-0.79,-7.28,24.2,75.87
-1.58,0.08,-0.73,-48.15,-250.14,-19
-0.13,0.08,1,-34.43,-101.22,-37.92
-2,-0.42,-0.51,-26.71,-91.69,-90.86
-0.43,0.13,-0.3,-81.4,-103.36,-161.16
0.14,0.39,0.05,-48.02,7.9,-244.69
-0.48,0.56,-0.43,15.12,58.55,-250.14
-1.2,2,-0.52,38.3,-33.47,-250.14
-1.8,2,-0.56,64.28,-137.98,-250.14
0.4,2,-0.88,51.16,-132.5,-250.14
0.11,2,-0.54,39.11,-42.94,-250.14
-0.15,2,-0.22,63.31,-115.68,-250.14
0.6,1.39,-0.22,43.8,-196.85,-186.71
1.74,0.69,-0.54,1.05,-230.37,-76.16
2,-0.61,-0.29,-15.74,-112.1,-22.91
2,-0.22,-0.39,-37.24,250.13,79.15
2,-0.29,-0.3,-28.91,250.13,50.73
-1.15,0.38,-0.12,4.6,216.69,135.22
-2,0.34,-0.5,79.27,128.74,101.65
-2,0.78,-1.54,87.84,-54.04,32.15
-1.21,1.63,-0.57,-226.71,39.89,13.26
2,0.48,-2,145.19,0.9,-89.35
2,1.74,-2,-6.42,92.6,229.97
-0.62,2,1.62,-23.24,44.69,250.13
1.25,2,-0.91,-35.97,97.81,250.13
-0.29,2,-0.72,-79.23,133.53,250.13
-1.72,2,-0.98,-84.52,21.72,250.13
-1.06,2,-0.58,-62.29,-50.18,250.13
-0.09,1.34,0.17,-46.08,55.7,250.13
-2,0.83,0.51,-32.79,157.55,187.93
-2,-0.03,-0.28,-28.85,49.37,69.15
-0.72,0.32,-0.14,-72.42,9.28,4.14
-0.82,0.05,0.55,-75.88,131.78,-30.64
-2,-0.61,-0.53,-28.48,-28.32,-71.16
-1.29,-0.25,-0.56,-40.27,-187.6,-89.97
-0.26,-0.11,-0.24,-33.19,-170.63,-171.07
-0.46,0.23,-0.51,-19.73,-104.13,-219.21
-0.53,1.17,-1.78,25.62,-72.76,-250.14
-1.51,2,0.17,37.34,-68.32,-250.14
-1.2,2,-0.52,15.95,17.72,-250.14
0.2,2,-0.6,53.82,3.39,-250.14
-0.67,2,-0.09,88.23,-118.42,-250.14
0.47,2,-0.29,95.45,-219.06,-250.14
1.48,1.54,-0.46,43.05,-176.46,-156.11
2,0.26,-0.59,-55.92,-165.24,-12.69
2,-1.52,0.12,-42.66,3.41,126.5
2,-0.61,0.1,-81.09,250.13,46.69
0.74,0.1,-0.78,9.72,250.13,66.5
-1.32,0.74,-0.06,10.83,213.29,147.85
-2,0.89,-0.41,17.92,91.57,75.81
-2,0.7,-2,140.36,-28.06,-33.05
-1.55,1.33,-1.05,-250.14,-44.35,-28.82
2,-1.1,2,107.2,-250.14,53.5
2,2,-2,-242.02,250.13,48.56
1.57,2,1.56,-78.44,178.58,250.13
-1.23,2,-0.46,-9.83,-18.56,250.13
1.46,2,-0.45,-39.21,65.85,250.13
-1.4,2,-0.12,-95.18,109.64,250.13
-0.92,2,-0.35,-90.46,196.35,250.13
-1.88,0.86,-0.48,-77.86,250.13,246.85
-2,0.06,-0.49,-46.4,101.28,105.12
-1.97,0.3,-0.85,-72.85,12.81,39.2
-0.74,0.02,0.55,-83.98,-11.1,24.08
-1.18,-0.13,0.12,-47.27,-44.23,-7.86
-1.56,-0.37,-0.24,-20.91,-127.02,-16.15
-0.56,-0.23,-0.4,-39.56,-156.74,-49.96
-0.59,-0.37,-0.15,-38.82,-117.74,-129.18
-0.59,0.23,-0.4,-30.44,-70.32,-179.47
-1.1,0.95,-2,16.09,-62.54,-246.9
-1.62,2,-0.28,45.93,-103.54,-250.14
-0.97,2,-0.79,33.18,-57.31,-250.14
0.34,2,-0.42,69.47,2.76,-250.14
0.1,2,-0.34,75.49,-130.54,-250.14
0.76,2,-0.55,81.09,-179.64,-250.14
1.75,1.44,-0.66,-3.47,-110.21,-169.52
2,-0.56,-0.41,-7.79,-142.49,1.19
2,-1.11,0.02,-43.5,102.56,79.51
2,-0.56,-0.69,41.81,250.13,-28.17
-0.1,0.4,-0.66,21.41,225.09,109.71
-1.44,0.8,0.56,-26.78,82.22,139.55
-2,0.45,0.61,5.1,-143.54,81.6
-1.88,0.59,-1.74,182.21,-109.06,-5.6
-0.49,1.42,-1.89,-219.76,211.18,-79.5
2,0.79,2,-51.58,-164.63,-40.61
2,2,2,-144.6,250.13,-40.63
2,2,-0.25,-5.31,68.53,250.13
-0.55,2,0.68,33.61,-32.66,250.13
0.23,2,-0.24,-65.74,169.62,250.13
-1.42,2,-0.43,-107.16,198.02,250.13
-1.35,1.71,-0.8,-99.69,215.4,250.13
-2,0.24,-0.59,-45.58,157.52,230.82
-2,0.22,-0.35,-14.57,69.85,132.46
-1.64,0.55,-0.18,-88.79,47.41,43.11
-0.43,-0.01,0.27,-69.3,46.96,22.98
-0.93,-0.12,0.26,-41.77,45.64,4.85
-2,-0.15,-0.32,-17.53,-106.63,0.15
-0.78,-0.17,-0.06,-40.5,-128.26,-19
-0.31,-0.75,-0.22,-41.65,-69.08,-112.44
-0.85,-0.25,-0.32,-22.94,-25.94,-201.4
-1.1,0.43,-1.16,11.78,-69.1,-250.14
-1.4,2,-1.85,64.6,-139.8,-250.14
-2,2,-0.31,44.6,-101.4,-250.14
-0.62,2,-1.04,80.92,-54.99,-250.14
-0.29,2,-0.51,30.13,-66.23,-250.14
0.36,2,0.3,80.72,-171.44,-250.14
1.41,1.51,-0.35,56.41,-169.12,-210.02
2,0.49,-0.99,-1.14,-134.4,-37.12
2,-1.19,-0.06,-8.84,-44.64,40.66
2,-0.07,0.07,-53.34,204.03,5.18
1,0.18,-0.63,16,224.78,65.69
-0.81,0.24,-0.35,7.72,125.93,160.71
-1.44,0.35,0.61,-9.23,-6.73,157.16
-2,0.5,0.2,63.4,-123.79,117.49
-1.66,1.06,-1.27,157.12,58.55,-74.62
-0.02,-0.12,1.78,-213.77,250.13,-109.31
-2,-0.94,-2,250.13,-21.95,57.81
0.89,2,-2,250.13,44.73,44.08
1.94,1.94,-1.7,-25.63,111.1,250.13
-0.28,2,-0.61,-9.97,62.75,250.13
-1.06,2,-0.25,-95.52,147.7,250.13
-1.75,2,-0.38,-118.61,184.22,250.13
-1.67,0.74,-0.41,-113.31,230.75,250.13
-2,-0.12,-0.67,-48.53,151.12,165.21
-2,0.01,-0.11,-64.51,33.79,74.03
-1.36,0.13,-0.46,-64.35,-54.63,22.04
-0.04,0.1,0.42,-57.16,-27.5,-2.54
-2,-0.32,-0.24,-20.5,-86.12,-22.34
-1.27,-0.36,-0.53,-25.78,-158.08,-45.6
-0.39,-0.41,-0.01,-32.8,-126.1,-142.55
-0.46,0.14,-0.04,-30.69,-84.37,-206.34
-0.25,0.79,0,-8.58,-1.41,-250.14
-0.7,2,-0.15,-6.26,-20.6,-250.14
-2,2,-0.49,-17.3,-20.66,-250.14
-0.68,2,-0.74,58.71,-17.5,-250.14
-0.61,2,-0.28,45.61,-67.89,-250.14
-0.13,1.93,0.05,116.8,-185.18,-250.14
0.78,1.67,-0.39,59.31,-148.69,-140.2
2,0.62,-0.61,-4.83,-152.51,-71.23
2,-0.87,-0.35,-30.23,-30.41,12.76
2,0.18,-0.83,-6.21,228.36,31.23
2,0.47,-0.17,-23.91,250.13,56.49
-0.22,0.4,-0.37,-5.13,248.68,103
-1.95,0.26,-0.14,1.6,77.26,120.22
-2,-0.01,-0.67,113.6,-46.34,67.87
-2,1.8,-2,-161.21,-15.59,-108.87
2,-1.87,2,236.76,-230.33,75.69
2,0.31,-2,63.03,142.1,140.72
2,2,-2,-59.45,67.89,126.83
-1.48,1.74,0.3,-61.83,109.13,250.13
0.1,2,-0.53,-19.35,9.92,250.13
-0.9,2,-0.01,-102.56,84.08,250.13
-0.99,2,-0.29,-129.64,148.05,250.13
-1.17,1.17,-0.43,-135.44,228.44,250.13
-2,0.38,-0.49,-69.73,145.15,209.97
-2,0.24,-0.34,-68.89,70.88,119.27
-1.59,-0.05,-0.55,-73.5,-12.18,59.44
-1.05,-0.25,0.22,-68.89,13.95,18.73
-2,-0.94,-0.11,-10.28,-161.92,-19.76
-0.92,-0.13,-0.62,-25.57,-231.11,-75.51
0.03,0.05,0.1,-41.83,-139.47,-148.7
-0.14,0.03,-0.14,-45.94,-57.93,-179.53
-0.6,0.03,-0.46,20.88,-5.82,-240.24
-1.23,2,-0.01,38.47,-97.13,-250.14
-2,2,-0.93,73.19,-112.59,-250.14
-0.32,2,-0.54,71.73,-27.75,-250.14
-1.28,2,-0.4,81.83,-123.83,-250.14
-0.03,2,-0.26,134.05,-233.9,-250.14
1.13,2,-0.7,74.7,-174.75,-189.82
2,1.01,-0.82,-40.76,-61.97,-90.2
2,-0.83,0.15,-16.24,-4.18,14.89
2,-0.02,-0.32,-78.15,250.13,41.71
1.12,0.12,-0.53,-7.98,250.13,90
-1.41,0.48,0.12,-9.46,151.44,172.69
-2,0.77,0.44,-3.35,9.88,135.82
-2,1.11,-2,169.06,-57.78,-20.24
-0.05,-0.07,2,-250.14,250.13,-160.86
-2,-1.33,-2,250.13,35.78,64.64
1.28,2,-2,184.15,-19.34,77.02
0.24,2,0.71,-23.63,60.85,250.13
0.39,2,-0.92,-11.56,29.19,250.13
-1.48,2,-0.12,-120.1,121.56,250.13
-1.65,2,-0.13,-118.82,89,250.13
-0.84,1.31,-0.4,-124.24,152.16,250.13
-2,0.29,-0.35,-49.84,81.85,244.34
-2,0.1,-0.07,-32.65,-14.26,124.2
-1.21,0.2,-0.2,-60.72,-22.2,51.65
0.01,0.03,0.48,-82.3,64.5,10.1
-1.46,-0.25,0.19,-57.56,20.06,-16.4
-1.49,-0.21,-0.36,-41.28,-65.58,-48.94
-0.95,-0.3,-0.41,-41.26,-100.89,-85.47
-1.03,-0.56,-0.39,-24.35,-136.67,-131.93
-0.78,0.02,-0.45,-15.08,-105.69,-206.15
-0.77,1.01,-2,31.82,-89.99,-250.14
-1.95,2,0.92,51.88,-44.1,-250.14
-1.69,2,-0.35,35.43,4.92,-250.14
0.06,2,-0.21,33.08,38.2,-250.14
0.07,2,0.31,64.63,-72.83,-250.14
0.52,2,0.04,73.42,-127.66,-199.61
1.46,1.15,-0.5,5.09,-95.29,-98.68
2,-0.02,-0.39,-20.22,-46.61,-61.32
2,-0.04,-0.1,23.56,178.57,57.34
2,-0.12,-0.25,-18.66,229.22,-11.22
0.54,-0.03,-0.94,23.05,162.21,107.21
-1.22,0.48,-0.22,-28.13,139.41,130.16
-2,0.43,0.22,50.81,-32.15,98.4
-2,1.51,-2,-26.97,-13.08,-49.24
2,0.53,2,-25.89,-221.73,-45.44
2,-0.04,2,-37.11,185.37,-78.4
2,1.88,0.06,-5.91,66.41,250.13
-0.91,2,0.25,-18.37,18.73,250.13
-0.38,2,-0.37,-61.47,73.27,250.13
-1.69,2,-0.05,-117.21,99.83,250.13
-1.14,2,-0.51,-141.76,129.85,250.13
-1.92,0.4,-0.43,-81.45,87.66,250.13
-1.81,0.44,-0.13,-42.75,144.08,175.34
-2,-0.11,-0.34,-79.36,131.71,83.11
-1.21,-0.14,-0.13,-76.51,-7.4,12.75
-2,-0.36,0.08,-36.19,-64.98,-22.56
-2,-0.75,-0.48,15.48,-235.71,-52.97
-0.44,-0.07,-0.29,-10.45,-203.13,-127.17
-0.05,-0.06,0.03,-17.91,-113.78,-198.42
-0.29,0.29,-0.09,-28.98,3.32,-250.14
-0.58,0.53,-0.6,50.7,47.86,-250.14
-2,2,0.77,67.35,-22.15,-250.14
-2,2,-0.7,76.81,-6.27,-250.14
-0.29,2,-1.17,108.24,-129.31,-250.14
-0.47,2,-0.07,86.79,-172.87,-250.14
0.45,1.81,-0.11,104.47,-238.4,-232.27
2,1.19,-0.73,8.05,-121.94,-104.4
2,-0.26,-0.3,-31.76,-81.75,-29.74
2,-0.39,-0.26,45.85,61.78,74.6
2,0.17,0.15,-102.16,250.13,25.4
0.38,0.2,-0.42,29.91,200.2,137.93
-1.23,0.29,-0.39,-4.23,144.89,178.82
-2,0.73,0.18,15.37,-33.53,128.08
-1.97,1.41,-2,72.6,2.78,4.11
-0.73,0.21,0.26,-235.91,169.53,-94.53
2,0.03,2,-111.77,109.27,-40.99
0.86,2,2,215.13,228.82,-197.92
2,-0.08,0.23,-41.78,111.47,250.13
-1.11,2,-0.41,33.18,-17.94,250.13
-1.07,2,-0.29,-128.18,157.54,250.13
-1.6,2,-0.01,-162.06,171.41,250.13
-2,0.92,-0.45,-145.56,220.2,250.13
-2,-0.22,-0.74,-71.58,154.11,201.17
-2,0.2,-0.36,-76.86,71.36,96.38
-1.57,-0.02,-0.26,-88.71,29.37,26.01
-0.96,-0.16,0.15,-70.02,16.2,2.12
-2,-0.78,-0.29,6.04,-160.97,-20.31
-1.39,-0.54,-0.83,16.42,-250.14,-65.29
0.11,-0.13,0.04,-12.27,-193.46,-158.06
-0.03,0.16,-0.17,-33.69,-75.5,-209.94
-0.67,0.35,-0.69,14.34,17.17,-250.14
-1.57,2,-0.08,40.44,-43.99,-250.14
-2,2,-0.96,48.02,-54.69,-250.14
-0.76,2,-0.72,86.72,-33.69,-250.14
-1.98,2,-0.37,109.62,-179.69,-250.14
-0.12,2,-0.29,144.7,-250.14,-250.14
1.37,2,-0.59,67.63,-200.69,-186.3
2,0.66,-0.56,-8.26,-129.6,-104.21
2,-0.54,-0.09,-1.08,-52.61,1.53
2,0.83,-1.04,-111.44,250.13,7.26
1.03,0,-0.04,-85.23,250.13,93.69
-1.21,-0.03,-0.32,10.15,180.76,157.64
-1.74,0.18,0.05,20.91,4.15,133.33
-2,0.79,-1.26,97.82,-122.4,71.38
-1.32,1.08,-2,-158.64,179.08,-144.28
1.01,0.29,2,-56.42,-71.66,-49.08
2,1.37,2,137.96,135.85,-36.02
1.31,1.77,1.67,-98.05,68.6,250.13
-2,2,-0.15,45.54,-67.5,250.13
0.39,2,-0.06,-48.24,62.69,250.13
-1.56,2,0.29,-131.69,142.58,250.13
-0.49,2,-0.75,-173.15,227.77,250.13
-2,0.53,-0.7,-146.15,166.49,250.13
-2,-0.16,-0.12,-25.68,35.3,186.07
-2,0.11,-0.1,-50.58,-16.05,111.11
-0.5,0.14,-0.07,-60.62,-6.31,47.07
-0.87,-0.1,0.29,-84.08,112.02,0.7
-2,-0.91,-0.17,-32.16,-45.46,-13.85
-1.41,-0.5,-0.55,-12.49,-158.27,-74.01
-0.73,-0.47,-0.34,4.77,-151.48,-142.97
-0.71,-0.07,-0.73,3.69,-104.68,-208.73
-0.86,1.4,-1.16,45.75,-141.85,-250.14
-2,2,0.95,70.01,-74.63,-250.14
-0.38,2,0.03,4.48,70.18,-250.14
-1.42,2,-0.31,53.11,75.3,-250.14
-0.88,2,-0.17,100.03,-135.73,-250.14
0.23,2,-0.35,112.56,-189.86,-250.14
2,1.39,-0.75,12.53,-79.95,-103.72
2,-0.15,-0.66,-1.95,-111.32,22.59
2,-0.52,-0.04,-81.35,159.7,43.41
2,0.19,-0.54,0.76,250.13,-0.91
0.02,0.14,-0.76,18.54,239.44,88.42
-1.24,0.3,-0.1,2.18,169.74,129.64
-1.76,0.51,0,26.69,15.3,154.48
-2,0.61,-1.07,83.55,-117.53,73.72
-1.72,0.83,-2,-80.86,40.69,-116.98
2,-0.11,2,124.48,-248.66,165.34
1.2,0.53,-2,155.93,250.13,250.13
2,2,-2,-97.55,-67.59,101.27
-0.07,1.96,-0.4,-45.21,42.79,250.13
-0.06,2,-0.58,-49.88,74.24,250.13
-1.48,2,-0.42,-142.69,152.39,250.13
-1.95,1.73,-0.45,-177.24,227.9,250.13
-2,-0.3,-0.55,-84.66,141.14,244.4
-2,-0.02,-0.41,-49,58.7,136.4
-2,0,-0.26,-71.39,-8.15,42.89
-0.63,-0.14,0.4,-44.52,-92.24,10.67
-0.81,0.06,0.33,-18.85,-99.88,-2.36
-1.05,-0.14,-0.12,-21.37,-74.02,-8.76
-0.51,-0.5,0.13,-55.15,-32.09,-84.76
-0.95,-0.59,-0.11,-50.15,-26.43,-149.44
-1.06,-0.03,-0.31,-28.02,-32.01,-220.4
-1.34,0.31,-1.01,55.04,-67.88,-250.14
-2,2,-0.07,66.02,-176.56,-250.14
-2,2,-0.76,61.89,-99.69,-250.14
-0.69,2,-0.94,78.66,-49.7,-250.14
-0.74,2,-0.63,64.57,-130.37,-250.14
0.29,2,-0.4,132.21,-210.73,-250.14
1.68,1.89,-0.77,42.46,-122.52,-170.99
2,0.25,-0.41,-8.73,-110.63,5.69
2,-1,0.25,-102.95,142.69,72.76
2,-0.05,-0.14,-38.78,250.13,-21.27
-0.21,0.13,-0.35,26.58,156.69,109.48
-0.85,0.43,-0.06,6.09,116.66,147.71
-0.95,0.63,0.17,16.34,-5.93,137.53
-1.41,0.55,-1,63.33,-2.59,75.85
-1.77,0.73,-2,-111.29,198.1,-105.64
1.4,2,2,-159.53,-250.14,10.98
2,2,-0.26,-104.24,175.85,-218.08
2,1.12,0.3,-188.15,208.64,250.13
-2,2,0.31,14.33,-23.84,250.13
-0.08,2,-0.58,-33.99,7.57,250.13
-1.5,2,0.09,-133.82,105.08,250.13
-0.88,2,-0.49,-156.6,113.5,250.13
-1.39,0.64,-0.82,-128.42,125.18,250.13
-2,-0.03,-0.11,-32.98,-6.73,230.75
-2,-0.35,-0.02,20.95,-153.25,154.17
-0.54,0.19,0.12,-20.78,-92.61,45.72
-0.08,0.13,0.69,-94.85,106.47,2.68
-2,-0.86,-0.06,-84.35,84.93,-52.39
-1.82,-0.79,-0.3,-55.42,-47.73,-114.55
-0.95,-0.4,-0.3,-6.24,-148.22,-185.13
-0.66,0.32,-0.54,5.52,-132.37,-241.57
-0.59,1.64,-1.74,26.88,-110.26,-250.14
-2,2,1.18,62.21,-55.53,-250.14
-1.4,2,-0.31,23.69,58.97,-250.14
-1.59,2,-0.78,63.11,-16.11,-250.14
-0.41,2,-0.35,94.04,-129.67,-250.14
0.36,2,-0.24,110.63,-163.83,-241.8
1.84,1.39,-0.47,-9.4,-19.97,-117.03
2,0.08,-0.55,-13.47,-80.73,-12.18
2,-0.76,-0.22,-5.69,6.63,75.11
2,0.18,-0.21,-52.37,250.13,20.3
0.63,0.37,-0.71,1.39,250.13,79.11
-1.09,0.36,0.06,14.4,140.66,160.98
-2,0.47,0.25,7.4,-7.65,124.98
-2,0.27,-0.79,133.82,-214.69,98.58
-1.56,1.03,-2,42.25,74.27,-79.61
-0.61,1.18,2,-88.77,-250.14,143.37
2,2,-2,6.4,151.03,-69.6
2,2,-0.44,-146.68,194.66,250.13
-2,2,-0.02,-17.28,54.53,250.13
0.35,2,-0.51,-9.58,65.4,250.13
-2,2,-0.07,-135.65,162.51,250.13
-1.32,2,-0.62,-151.59,112.63,250.13
-1.27,0.34,-0.59,-131.47,111.54,250.13
-2,0.32,-0.34,-50.32,97.53,205.17
-2,-0.42,0.21,-47.05,-3.28,112.91
-0.85,-0.18,-0.19,-44.08,-73.15,12.98
-0.28,0.08,0.64,-82.86,69.95,-4.42
-2,-0.79,-0.06,-49.02,-14.8,-41.17
-1.24,-0.56,-0.28,-41.82,-95.98,-105.61
-0.55,-0.31,0,-31.06,-105.71,-177.28
-0.47,0.27,-0.11,-28.4,-79.66,-229.96
-0.81,1.21,-2,14.89,-37.02,-250.14
-2,2,0.85,42.08,-53.51,-250.14
-2,2,-0.75,25.97,-7.18,-250.14
-1.07,2,-0.69,61.76,-28.66,-250.14
-0.82,2,-0.27,63.39,-99.47,-250.14
0.29,1.82,-0.05,116.05,-187.59,-237.44
1.58,1.35,-0.45,38.58,-66.75,-111.53
2,0.48,-0.5,-1.99,-72.17,1.21
2,-0.73,-0.24,-27.83,8.66,72.76
2,0.19,0.35,-74.16,250.13,2.82
0.42,0.21,-0.7,6.27,216.06,49.78
-1.16,0.29,-0.12,38.34,113.73,131.51
-1.9,0.54,-0.07,12.85,34.85,103.95
-1.71,0.49,-0.73,79.24,-117.72,76.33
-1.19,0.67,-0.95,8.91,90.19,-50.36
-0.26,-0.27,0.53,-158.69,2.23,33.15
2,0.77,2,2.8,-93.62,33.98
2,2,2,-232.46,250.13,-132.99
2,1.34,2,-250.14,188.33,250.13
-2,1,0.48,-11.38,55.5,250.13
-2,2,-1.45,-98.97,125.98,250.13
-2,2,-0.3,-126.28,121.33,250.13
-0.94,2,-0.55,-168.49,175.56,250.13
-2,-0.25,-0.48,-86.32,58.99,250.13
-1.94,-0.07,0.14,-20.58,-30.85,146.46
-1.55,0.01,0.07,-58.95,6.35,67.14
-0.23,0.31,0.27,-56.94,-10.12,14.5
-0.97,-0.17,0.32,-91.51,116.91,-5.65
-1.62,-0.63,-0.28,-85.04,59.21,-32.99
-1.12,-0.75,-0.13,-63.83,-8.54,-119.85
-1.06,-0.45,-0.32,-23.83,-93.41,-152.87
-0.64,-0.16,-0.51,40.13,-93.02,-198.36
-1.23,2,-0.54,51.16,-250.14,-250.14
-2,2,-0.35,92.76,-73.19,-250.14
-0.45,2,-0.27,52.08,34.24,-250.14
-1.75,2,-0.29,104.37,-15.35,-250.14
-0.96,2,-0.31,116.97,-178.06,-250.14
0.41,2,-0.48,159.03,-250.14,-218.66
1.95,1.72,-0.68,33.34,-105.15,-103.57
2,0.36,-0.48,-25.88,-103.45,-22.69
2,-0.5,-0.25,-114.12,250.13,33.24
1.98,-0.53,0.29,-25.22,250.13,-23.5
-0.74,-0.3,-0.23,72.46,166.89,83.11
-1.31,0.3,-0.79,70.89,34.4,92.63
-1.74,0.34,-0.41,58.29,-0.08,64.57
-1.25,0.94,-2,-28.39,65.62,-33.23
-2,-0.36,2,-87.44,-250.14,19.29
2,2,2,12.66,162.9,-249.47
1.8,0.61,1.54,-143.28,250.13,250.13
-2,2,-0.51,-2.72,21.26,250.13
-0.81,2,-0.26,-57.73,17.05,250.13
-1.23,2,-0.03,-115.51,69.69,250.13
-1.31,2,-0.6,-136.07,60.2,250.13
-0.81,1.12,-0.79,-141.79,99.62,250.13
-2,0.24,-0.18,-82.45,55.54,250.13
-2,-0.32,0.36,-7.82,-54.89,182.6
-0.98,-0.06,-0.2,-33.11,-51.5,72.75
0.28,0.35,0.6,-83.33,106.29,25.94
-2,-0.66,-0.16,-74.17,70.02,-21.82
-2,-1.03,-0.56,-18.08,-140.82,-69.73
-0.51,-0.33,-0.03,3.76,-175.71,-166.17
-0.4,0.31,-0.18,-11.4,-93.21,-228.73
-0.63,1.34,-1.74,-17.44,-12.84,-250.14
-2,2,0.36,9.28,-54.8,-250.14
-1.15,2,-0.52,-10.3,26.27,-250.14
-0.96,2,-0.47,52.37,90.98,-250.14
-1.4,2,-0.38,88.63,-44.4,-250.14
-0.17,1.94,0.02,156.38,-165.57,-250.14
1.07,1.98,-0.61,77.98,-122.83,-176.21
2,0.55,-0.23,3.31,-204.49,-100.6
2,-0.83,-0.19,40.42,-59.92,31.92
2,0.33,-0.5,-104.94,250.13,-9.73
0.72,0.12,-0.77,-9.84,250.13,80.29
-1.39,0.1,0.3,20.2,56.98,187.44
-2,0.45,0.42,60.69,-120.33,65.04
-1.94,0.85,-1.67,112.7,-154.47,-7.26
-0.02,0.66,1.41,-201.78,174.79,-31.78
-2,-1.28,-2,250.13,-54.69,62.2
1.24,2,-0.91,250.13,219.09,-191.76
1.53,0.92,-0.25,-32.21,19.95,250.13
-0.7,2,-0.38,60.6,-39.47,250.13
-0.84,2,-0.18,-111.1,127.52,250.13
-1.77,2,0.14,-121.6,124.93,250.13
-0.21,2,-0.78,-175.72,221.69,250.13
-2,0.49,-0.63,-143.25,173.58,250.13
-2,-0.48,-0.3,-33.72,7.83,182.89
-1.98,-0.08,-0.28,-39.27,-34.14,110.58
-0.58,-0.18,0.38,-58.82,1.57,33.2
-0.81,-0.43,0.41,-71.68,51.98,2.92
-1.93,-0.62,-0.32,-50.26,-16.73,-57.29
-1.21,-0.4,-0.28,-25.21,-115.72,-102.21
-0.69,-0.36,-0.19,-3.72,-138.06,-146.95
-0.46,0,-0.32,-9.1,-108.53,-199.22
-0.56,0.55,-1.18,36.48,-41.16,-250.14
-1.57,2,0.64,46.22,-50.82,-250.14
-2,2,-0.69,34.31,-20.27,-250.14
-1.02,2,-0.61,95.48,19.43,-250.14
-1.23,2,-0.41,91.1,-70.17,-250.14
-0.17,2,-0.36,163.44,-177.9,-250.14
0.81,1.75,-0.39,77.35,-158.2,-123.38
2,0.77,-0.41,-10.79,-114.32,-17.85
2,-0.69,0.16,-63.24,27.56,81.87
2,-0.15,0.37,-54.64,250.13,-4.45
0.62,0.14,-0.76,22.34,218.47,52.66
-1,0.27,-0.22,13.22,124.05,144.81
-1.4,0.53,0.23,0.15,24.27,120.05
-1.63,0.29,-0.53,81.95,-105.89,86.36
-1.47,0.76,-1.91,47.64,132.34,-72.19
-0.07,-0.7,2,-68.41,-125.56,88.62
2,2,-2,101.79,62.6,152.08
2,2,-2,75.5,16.11,51.27
-0.29,2,-0.33,-123.99,119.11,250.13
-0.83,2,-0.87,13.76,34.7,250.13
-1.25,2,-0.01,-124.11,101.44,250.13
-1.22,2,-0.5,-162.23,140.05,250.13
-1.52,0.85,-0.66,-165.35,214.86,250.13
-2,-0.28,-0.55,-71.78,137.7,194.82
-2,-0.43,-0.4,-27.02,2.27,116.63
-1.2,-0.01,0.17,-51.34,-40.79,15.77
-0.49,0,0.29,-56.9,12.41,10.82
-1.69,-0.66,0.06,-55.98,1.74,-46.71
-1.39,-0.7,-0.52,-33.18,-72.73,-84.9
-0.8,-0.48,-0.24,-17.89,-110.39,-141.87
-0.93,-0.17,-0.46,-0.23,-135.85,-191.04
-0.76,0.53,-0.88,-6.14,-108.55,-250.14
-1.14,1.65,-2,58.58,-90.59,-250.14
-2,2,-0.68,108.64,-129.58,-250.14
-0.97,2,-0.6,81.23,-50.32,-250.14
-0.89,2,-0.99,104.92,-67.93,-250.14
-0.16,2,-0.18,94.34,-116.76,-250.14
0.47,1.66,-0.22,55.52,-136.98,-144.05
1.99,0.96,-0.52,-10.05,-117.15,-6.67
2,-0.6,-0.03,-25.01,-76.73,65.89
2,-0.23,0.04,-73.21,243.05,54.69
1.55,0.18,-0.61,-7.53,250.13,4.26
-0.37,0.4,-0.16,17.55,123.5,106.05
-1.58,0.49,-0.09,24.08,85.64,85.79
-2,0.24,-0.51,74.45,-29.47,70.44
-1.59,0.74,-1.88,33.21,62.04,-9.79
-2,0.4,2,-250.14,-166.14,-23.34
2,2,2,107.4,-156.13,-250.14
1.79,-0.89,2,-167.79,250.13,250.13
-1.69,2,-0.08,86.32,-5.55,250.13
-0.04,2,-1.04,-63.05,51.47,250.13
-2,2,-0.02,-102.01,103.35,250.13
-1.21,2,-0.6,-143.11,98.18,250.13
-1.21,1.06,-0.48,-153.66,175.55,250.13
-2,-0.08,-0.19,-92.89,143.83,202.39
-2,-0.09,-0.39,-42.85,61.45,116.23
-1.05,0.15,-0.05,-65.87,22.21,49.43
-0.53,0.09,0.63,-117.56,124.06,12.53
-2,-0.81,-0.25,-68.05,22.26,-21.02
-1.99,-1.11,-0.57,-10.76,-119.71,-70.46
-0.91,-0.59,-0.28,11.03,-184.7,-124.23
-0.62,-0.11,-0.31,5.35,-151.92,-198.35
-0.34,0.42,-0.81,-25.39,-67.92,-250.14
-1.05,1.2,-1.98,55.18,-73.56,-250.14
-2,2,0.18,124.98,-96.92,-250.14
-0.64,2,-0.53,69.37,25.8,-250.14
-0.81,2,-0.68,63.65,-16.28,-250.14
-0.22,2,0.04,97.05,-86.69,-250.14
0.09,2,-0.38,97.85,-131.83,-224.11
1.91,1.27,-0.88,27.69,-66.18,-62.79
2,-0.38,-0.28,-2.44,-111.69,71.12
2,-0.38,0.02,-40.09,169.61,48.6
2,0.33,-0.54,-47.77,250.13,13.75
-0.48,0.18,-0.16,22.96,200.92,130.89
-1.47,0.28,-0.09,38.04,139.37,144
-2,0.55,-0.36,73.47,-57.99,104.74
-1.97,0.87,-1.74,65.52,-24.69,-19.86
-0.45,0.31,1.19,-165.59,-13.79,-20.04
-2,-0.1,-2,250.13,-26.68,148.54
2,2,-1.96,250.13,14.81,-177.47
1.57,2,-0.74,-64.81,123.27,250.13
-0.79,2,-0.32,49.01,25.01,250.13
-0.77,2,-0.16,-111.5,118.29,250.13
-1.49,2,-0.62,-146.38,141.75,250.13
-0.87,1.57,-0.92,-192.89,250.13,250.13
-2,0.01,-0.68,-134.55,211.14,215.23
-2,-0.52,-0.1,-40.76,37.26,144.35
-1.82,-0.08,-0.06,-50.67,2.27,61.88
-0.7,0.09,0.09,-62.15,12.47,11.34
-1.83,-0.43,0.16,-55.3,-7.67,-24.48
-1.85,-0.97,-0.38,-6.89,-122.18,-69.16
-0.7,-0.31,-0.18,-16.85,-135.6,-129.56
-0.55,-0.17,-0.25,-17.09,-114.65,-199.31
-0.61,0.41,-0.73,-28.89,-51.67,-250.14
-1.36,1.66,-2,36.72,-79.63,-250.14
-2,2,-0.03,110.89,-70.7,-250.14
-1.03,2,-0.67,70.9,26.16,-250.14
-1.21,2,-0.46,88.6,-46.8,-250.14
-0.51,2,-0.2,138.06,-129.31,-250.14
0.58,1.85,-0.4,118.97,-147.76,-191.96
1.63,1.11,-0.54,30.45,-141.94,-46.24
2,-0.37,0.03,31.18,-132.59,87.15
2,0.27,-0.64,-101.98,250.13,22.73
1.6,0.23,-0.54,-40.77,250.13,31.89
-1.19,0.21,0.01,2.82,210.69,137.73
-2,0.33,0.11,14.81,42.07,118.97
-2,-0.08,-1.23,165.07,-97.53,58.65
-2,2,0.57,-250.14,65.66,-151.7
2,2,-1.54,-41.06,83.02,-137.22
2,1.53,-2,-234.3,124.21,86.75
-0.31,0.83,-1.44,31.84,61.42,250.13
-1.7,2,-0.32,43.66,97.62,160.62
-0.57,2,0.12,-93.3,125.6,250.13
-1.4,2,-0.16,-102.65,109.23,250.13
-1.13,2,-0.5,-172.9,122.58,250.13
-1.33,0.94,-0.78,-157.79,190.07,250.13
-2,-0.01,-0.35,-105.37,162.72,181.7
-2,-0.41,-0.23,-90.19,93.89,105.29
-1.02,0.04,-0.57,-80.84,11.13,37.7
-1.1,0.08,0.39,-112.36,134.2,11.06
-2,-1.43,-0.66,-22.98,-76.99,-10.34
-1.55,-1.05,-0.48,17.96,-250.14,-85.99
-0.25,-0.04,-0.26,33.45,-234.17,-162.98
-0.15,0.47,-0.19,-9.3,-107.34,-231.67
-0.39,0.89,-0.12,-7.52,36.05,-250.14
-2,2,0.86,7.53,-27.76,-250.14
-2,2,-1.05,26.01,-38.37,-244.02
-0.36,2,-1.29,81.2,24.04,-250.14
-0.39,2,-0.41,89.63,-42.05,-250.14
0.01,1.96,-0.12,151.75,-127.32,-250.14
1.19,1.61,-0.88,98.4,-126.8,-115.02
-1.03,0.44,-0.19,72.5,240.97,90.85
-1.91,1.02,-0.85,72.26,114.2,114.05
-2,0.79,-1.22,98.67,-54.6,33.45
-0.99,1.82,-1.66,-65.58,2.98,-105.9
1.36,-1.36,2,-78.83,2.91,49.12
2,2,-2,-55.26,-227.13,-79.27
2,1.63,-2,-46.42,-27.44,160.19
0.2,2,0.64,-10.21,43.24,250.13
1.43,2,-0.68,3.34,38.98,250.13
-0.92,2,-0.25,-61.29,96.49,250.13
-0.82,2,-0.11,-84.76,70.3,250.13
-0.47,2,-0.35,-92.92,101.09,250.13
-0.27,1.27,-0.43,-70.49,175.53,250.13
-2,0.85,-0.27,-56.73,214.95,201.09
-2,-0.02,-0.29,-50.71,39.82,120.76
-1.53,-0.12,0.03,-55.59,-63.43,47.22
-1.31,0.02,0.05,-40.51,-42.69,-0.81
-2,-0.5,-0.15,-51.2,-93.44,-32.99
-1.21,-0.16,-0.52,-70.37,-192.27,-107.4
-0.15,0.12,0.02,-60.5,-154.55,-176.37
-0.05,0.48,-0.32,-32.4,-64.41,-236.11
-0.05,2,-0.29,-37.66,-38.55,-250.14
-2,2,0.04,2.05,-21.1,-250.14
0.11,2,-0.43,31.9,35.85,-250.14
0.25,2,-0.42,68.35,71.92,-250.14
-0.71,2,-0.17,102.73,-85.33,-250.14
0.01,1.79,-0.03,107.53,-217.79,-232.84
1.72,0.63,-0.59,58.08,-209.73,-115.32
2,-0.52,-0.58,13.87,-107.57,77.66
2,-0.86,-0.15,-75.34,77.04,91.29
2,-0.27,-0.18,-29.96,250.13,53.46
-1.37,0.31,-0.12,45.84,236.1,111.46
-2,0.83,-0.12,14.52,66.39,126.75
-2,0.82,-1.25,107.64,-82.63,9.56
-0.1,1.55,-1.14,-92.71,96.09,-112.15
0.8,0.39,2,-97.11,-52.36,12.08
2,1.33,2,-66.37,31.76,-136.35
1.6,1.32,0.37,3.66,27.63,250.13
0.04,2,-0.54,-6.74,-56.4,250.13
0.8,2,-0.49,-21.67,29.63,250.13
-0.98,2,-0.1,-64.59,63.31,250.13
-0.77,2,-0.01,-89.01,51.14,250.13
-0.21,1.69,-0.41,-96.01,154.91,250.13
-1.18,0.96,-0.51,-65.76,204.5,248.6
-2,0.32,-0.06,-49.54,84.03,156.19
-1.91,0.1,-0.37,-52.08,-45.02,89.15
-1,0.08,0.34,-54.08,-34.66,34.25
-1.93,-0.28,-0.11,-37.87,-32.18,-7.25
-2,-0.46,-0.59,-49.47,-113.6,-60.56
-1.05,-0.07,-0.14,-55.43,-217.14,-141.44
-0.21,0.32,-0.21,-39.18,-169.16,-202.56
0,0.97,0.11,-49.83,-53.21,-246.41
-0.5,1.5,-1.63,10.82,-1.82,-250.14
-2,2,-0.15,-3.36,-61.08,-250.14
0.13,2,-0.62,66.24,-20.42,-250.14
0.52,2,-0.68,67.31,40.37,-250.14
-0.27,2,-0.28,77.95,-54.43,-250.14
0.42,1.56,-0.13,110.27,-209.08,-219.18
2,0.76,-0.8,70.09,-156.62,-70.88
2,-1.26,0.56,-68.47,-79.68,68.81
2,-0.66,0.63,-50.76,167.95,64.18
1.28,0.12,-0.59,37.89,250.13,73.85
-1.78,0.61,-0.41,58.74,240.19,144.41
-2,0.9,0.18,25.97,32.69,116.09
-1.34,1.42,-1.8,72.54,-49.63,-11.92
0.3,-0.34,2,-102.32,-0.02,-20.89
2,2,-2,-77.4,-179.47,-112.64
2,1.14,-2,-33.85,-22.06,158.53
0.27,2,0.43,2.72,49.81,250.13
1.45,2,-0.76,-1.51,64.02,250.13
-0.55,2,-0.48,-51.06,115.71,250.13
-1.06,2,-0.3,-78.84,86.08,250.13
-0.58,2,-0.02,-106.39,137.67,250.13
-0.62,1.14,-0.58,-84.97,206.64,250.13
-1.79,0.58,-0.21,-64.18,250.13,183.69
-2,0.15,-0.48,-81.75,160.21,60.4
-1.91,0.12,-0.5,-68.37,-25.91,42.91
-2,-0.35,-0.33,-16.2,-150.15,26.08
-2,-1,-1.18,5.09,-250.14,-52.07
0.1,0.54,-0.08,-36.31,-250.14,-153.63
0.63,0.61,-0.03,-29.79,-108.56,-217.6
-0.04,1.76,-0.46,-28.67,-8.66,-250.14
-1.53,2,-0.04,-27.95,49.37,-250.14
0.31,2,-0.35,-2.69,8.56,-250.14
0.51,2,-0.35,63.28,73.41,-250.14
-0.44,2,-0.04,95.19,-80.05,-250.14
0.36,2,-0.17,104.92,-187.93,-250.14
1.33,1.15,-0.46,70.72,-154.49,-205.8
2,-0.31,-0.47,2.31,-106.89,-62.66
2,-0.9,-0.14,-41.44,89.71,25.63
2,-0.95,-0.31,-84.63,250.13,7.99
-0.15,-0.04,-0.3,53.92,229.11,54.89
-1.42,0.19,-0.21,113.2,86.34,91.01
-2,1.31,-0.2,41.18,-51.22,64.99
-1.57,1.57,-1.49,27.15,-47.26,-46.8
0.01,-0.34,1.19,-152.42,49.85,-48.62
-2,1.03,-2,250.13,250.13,67.15
2,-0.51,-2,1.02,209.82,-103.54
0.61,1.89,-0.36,-37.95,64.21,250.13
1.13,2,-0.72,-3.2,-26.3,250.13
-1.03,2,-0.1,-68.11,101.39,250.13
-0.93,2,0.02,-95.78,56.62,250.13
0.04,2,-0.45,-103.28,117.52,250.13
-0.17,1.36,-0.43,-76.21,215.72,250.13
-2,0.95,-0.46,-49.47,171.81,218.75
-2,-0.23,-0.42,-33.5,-11.28,117.45
-0.83,0.14,0.27,-58.23,-51.94,62.46
-1.27,-0.01,0.08,-46.37,32.1,9.5
-2,-0.77,-0.2,-42.05,-47.85,-39.01
-1.22,-0.18,-0.41,-55.34,-172.4,-115.45
-0.27,0.04,-0.03,-43.15,-148.84,-185.18
-0.14,0.58,-0.21,-40.23,-59.79,-229.03
-0.6,1.13,-1.47,6.35,-13.88,-250.14
-1.84,2,0.38,2.64,7.09,-250.14
-0.19,2,-0.09,31.17,-4.55,-250.14
0.29,2,-0.71,58.1,2.87,-250.14
-0.41,2,-0.11,75.13,-148.44,-250.14
0.29,2,-0.43,102.02,-205.69,-250.14
1.48,1.04,-0.75,69.27,-220.15,-165.01
2,-0.37,-0.47,-30.47,-170.36,1.53
2,-0.87,-0.18,21.79,30.15,88.07
2,-0.64,-0.62,-78.63,250.13,33.58
-0.78,0.32,0.03,20.18,245.81,145.88
-2,0.52,0.29,41.01,82.44,204.09
-2,0.77,-1.27,105.92,-90.91,57.4
-1.54,1.85,-1.28,-81.15,36.03,-82.87
2,1.23,2,-46.81,-97.86,-11.19
2,2,2,37.21,68.37,0.59
0.34,1.59,-1.44,-9.6,38.09,250.13
0.73,2,-0.79,9.81,-45.67,250.13
-0.16,2,-0.44,-26.95,36.36,250.13
-0.72,2,0.06,-67.62,40.05,250.13
-0.64,2,-0.04,-77.7,30.34,250.13
-0.08,1.33,-0.28,-80.76,137.88,250.13
-1.49,1.11,-0.39,-48.28,161.76,236.45
-2,0.25,0.39,-29.53,5.73,151
-1.26,0,0.1,-40.95,-73.62,64.76
-0.06,0.34,0.56,-61.71,40.85,16.11
-2,-0.21,-0.12,-63.22,70.53,-22.5
-2,-0.57,-0.68,-58.37,-94.55,-82.93
-0.94,-0.17,-0.04,-43.98,-179.34,-164.8
-0.3,0.59,-0.13,-40.86,-120.49,-223.73
0.02,1.15,-0.67,-6.78,-31.82,-250.14
-0.81,2,-0.1,-21.02,29.97,-250.14
-0.63,2,-0.31,-2.3,15.47,-250.14
0.22,2,-0.64,42.02,37.53,-250.14
-0.45,2,-0.09,51.81,-31.77,-250.14
-0.22,1.81,0.06,83.34,-117.66,-250.14
0.99,1.08,-0.29,74.5,-154.08,-185.96
1.87,0.11,-0.67,24.28,-207.56,-63.03
2,-0.87,-0.58,28.31,-86.58,81.89
2,-0.47,-0.44,-108.86,250.13,76.21
0.45,0.07,-0.37,38.46,250.13,99.96
-2,0.49,-0.09,53.73,185.7,183.29
-2,0.94,-0.26,41.18,-20.69,130.04
-1.43,1.71,-1.37,71.97,-69.96,-43.02
0.5,-0.91,2,-92.46,92.88,-76.35
-2,-0.51,-2,250.13,250.13,70.63
2,0.72,-2,34.24,126.53,-26.73
2,1.62,-1.17,-12.61,62.47,250.13
-0.16,2,-0.24,-6.31,20.08,250.13
-0.85,2,-0.12,-65.92,62.78,250.13
-0.75,2,0.14,-108.05,67.48,250.13
-0.1,1.95,-0.69,-112.25,134.68,250.13
-0.35,1.22,-0.91,-82.95,235.34,250.13
-2,0.38,-0.28,-55.65,150.98,209.21
-2,-0.57,0.4,-26.45,-73.02,123.9
-0.92,0.32,0.12,-54.27,-84.75,20.9
-1.61,-0.05,0.16,-68.53,35.65,-38.09
-2,-0.44,-0.38,-65.4,-71.23,-101.54
-0.94,-0.17,-0.18,-66.76,-158.92,-170.42
-0.21,0.35,-0.02,-51.92,-133.16,-229.37
-0.09,1.27,-1.25,-17.21,-63.01,-250.14
-1.09,2,-0.19,-12.64,33.05,-250.14
-0.28,2,-0.15,13.34,20.62,-250.14
0.12,2,-0.54,46.93,13.37,-250.14
0.01,2,-0.26,89.31,-36.92,-250.14
-0.22,1.88,0.07,100.2,-109.05,-250.14
0.59,1.17,-0.22,82.29,-182.93,-184.4
1.94,0.23,-0.47,46.77,-227.04,-59.89
2,-0.69,-0.19,-5.46,-22.75,61.92
2,-0.54,0.43,-125.32,227.82,26.91
0.9,0.16,-0.53,16.95,226.52,63.11
-1.48,0.25,-0.36,74.52,143.85,108.72
-2,0.64,-0.29,38.79,52.78,58.28
-1.52,1.42,-1.43,69.34,36.02,-32.19
1.42,-0.77,2,-64.68,27.18,20.99
-2,2,-2,250.13,250.13,132.77
2,-0.31,-2,5.08,60.98,-21.61
1.72,1.19,0.11,-18.69,72.73,250.13
0.61,2,-0.53,-10.54,31.32,250.13
-1.19,2,0.11,-76.11,85.53,250.13
-0.92,2,0.18,-100.24,54.3,250.13
0.3,1.95,-0.53,-109.21,96.22,250.13
-0.38,1.23,-0.85,-78.36,149.28,250.13
-2,0.5,0.13,-39.89,77.86,250.13
-2,0.18,0.34,-4.44,-62.6,164.79
-0.97,0.38,0.15,-52.33,32.04,75.03
-1.35,-0.07,0.26,-80.91,141.1,6.99
-2,-0.6,-0.51,-66.31,41.3,-67.14
-1.8,-0.39,-0.49,-45.36,-176.41,-127.95
-0.36,0.13,-0.25,-16.1,-209.7,-181.22
0.23,0.85,-0.46,-16.15,-100.51,-237.57
0.03,2,-0.51,-30.46,-50,-250.14
-1.06,2,-0.01,-16.82,-20.13,-233.69
0.02,2,-0.23,47.08,101.82,-250.14
-0.02,2,-0.27,81.65,93.38,-250.14
-0.47,2,0.3,109.86,-83.69,-250.14
0.36,1.61,-0.2,108.2,-177.02,-250.03
1.9,0.4,-0.62,78.17,-164.07,-132.1
2,-0.45,-0.09,-18.23,-101,24.87
2,-0.87,-0.23,-48.89,39.02,27.08
1.96,-0.19,-0.43,-7.5,250.13,48.82
-1.25,0.27,-0.18,50.98,223.15,150.69
-1.95,1.07,0.23,10.94,22.95,136.53
-1.88,1.03,-1.47,124.53,-64.73,-2.05
0.67,-0.01,1.81,-96.98,80.6,-16.95
-1.56,-0.21,2,97.26,250.13,76.79
2,1.02,0.35,-7.75,175.15,-81.76
2,1.11,-0.62,-7.37,12.21,250.13
0.22,2,0.04,1.81,15.59,250.13
-0.94,2,-0.16,-59.66,100.44,250.13
-1.08,2,0.15,-89.06,89.75,250.13
-0.32,2,-0.39,-104.11,139.76,250.13
-1.17,1.1,-0.87,-70.65,143.28,250.13
-2,0.52,-0.16,-38.29,38.35,230.08
-2,0.18,0.23,-18.34,-116.22,152.85
-0.8,0.33,0.22,-31.38,-67.07,66.11
-0.8,0.25,0.52,-55.4,74.08,16.1
-2,-0.57,-0.21,-59.37,34.02,-39.97
-1.9,-0.65,-0.17,-58.89,-162.29,-143.25
-0.5,0.32,-0.56,-42.4,-157.69,-222.47
-0.03,1.81,-1.11,-19.54,-134.94,-250.14
-1.98,2,0.04,-12.14,-56.8,-250.14
0.08,2,-0.39,-6.34,-31.83,-250.14
0.31,2,-0.23,42.32,43.43,-250.14
-0.29,2,-0.26,81.09,-42.13,-250.14
0.14,2,-0.01,77.65,-106.21,-250.14
1.24,1.14,-0.27,24.2,-131.44,-206.15
2,-0.36,-0.36,-35.42,-181.27,-49.2
2,-1.35,-0.2,17.21,-15.02,84.02
2,-0.39,-0.21,-127,250.13,14.12
0.51,0.24,-0.55,35.23,250.13,90.79
-1.69,0.27,-0.31,68.68,142.45,121.59
-2,0.72,-0.88,66.82,5.47,45.54
-1.95,2,-1.57,12.57,-68.95,-53.5
0.65,-0.7,1.98,-101.6,84.2,35.21
2,2,-2,-84.8,-14.02,-152.6
2,-1.34,-2,39.92,67.83,202.75
-0.53,2,-0.33,-17.08,67.1,250.13
0.86,2,-0.68,16.1,-55.2,250.13
-0.02,2,-0.06,-28.6,32.13,250.13
-0.41,2,0.01,-59.38,53.92,250.13
-0.35,2,-0.12,-75.67,117.56,250.13
-0.76,1.53,-0.34,-66.61,206.85,250.13
-2,0.55,-0.01,-47.49,141.99,205.14
-2,0.05,-0.22,-58.79,36.15,89.62
-0.74,0.02,0.04,-62.08,35.52,27.52
-1.93,0.08,0,-51.05,64.62,-14.56
-2,-0.58,-0.23,-41.56,-90.76,-46.82
-0.92,-0.19,-0.29,-50.5,-185.56,-105.5
-0.38,0,-0.16,-43.38,-152.32,-166.93
-0.16,0.59,-0.81,-47.04,-69.15,-227.03
-0.28,2,-1.3,-0.54,-92.44,-250.14
-2,2,0.11,21.48,-54.33,-250.14
-0.18,2,-0.68,43.67,27.75,-250.14
0.12,2,-0.51,70.89,2.4,-250.14
-0.31,2,0.17,86.6,-120.23,-250.14
0.8,1.69,0.12,82.82,-191.92,-243.74
2,0.41,-0.57,32.14,-104.16,-111.05
2,-0.74,-0.36,-42.05,-32.61,60.7
2,-0.82,-0.09,-62.55,166.37,28.63
1.54,0.22,-0.62,25.88,250.13,62.79
-0.9,0.28,-0.42,39.93,222.98,131.72
-1.59,0.74,-0.25,27.73,85.86,146.31
-2,0.66,-0.74,68.21,-67.25,75.36
-1.51,1.14,-1.12,-25.63,5.15,-60.2
2,-1.95,2,68.18,-106.15,17.15
1.61,2,-2,-250.14,53.51,-97.91
2,-0.74,-2,-12,47.73,85.11
0.08,2,-1.9,-11.17,112.27,250.13
-0.5,2,-1.06,-2.87,-10.92,250.13
-0.4,2,-0.03,-40.08,-28.37,250.13
-0.05,2,0.16,-74.5,58.53,250.13
0.11,1.53,-0.2,-83.5,197.33,250.13
-1.58,1.15,-0.61,-65.89,250.13,229.02
-2,-0.02,0.08,-43.76,79.88,159.79
-2,-0.15,0.07,-50.54,-16.04,47.82
-0.94,0.04,0.13,-52.53,-64.81,0.88
-1.61,-0.16,0.16,-50.3,-24.02,-36.76
-1.46,-0.32,-0.49,-57.49,-96.51,-97.02
-0.4,-0.16,-0.05,-60.8,-123.47,-164.76
-0.38,0.23,-0.08,-48.34,-97.61,-215.12
0,0.79,-0.5,-36.48,-31.16,-250.14
-0.86,2,-0.74,-3.83,-27.39,-250.14
-1.54,2,-0.53,-3.51,-38.09,-243.99
0.73,2,-1.07,47.38,12.41,-250.14
0.1,2,0.04,43.82,6.63,-250.14
-0.5,2,0.13,94.34,-118.72,-250.14
0.76,1.31,-0.3,86.27,-190.87,-151.56
1.9,0.36,-0.45,50.48,-154.73,-52.19
2,-0.33,-0.34,-5.34,-6.38,71.34
2,-0.42,-0.09,-89.64,194.31,71.26
1.61,-0.09,0.06,-11.6,250.13,71.68
-0.92,0.15,-0.41,54.37,219.9,110.35
-1.51,0.65,-0.63,33.98,162.12,128.94
-1.74,0.51,-0.68,81.98,40.59,91.87
-1.95,1.16,-1.74,13.1,24.63,-44
2,-1.81,2,29.22,-135.15,24.79
2,2,-2,-250.14,-94.15,-73.76
2,-0.23,-2,13.01,-18.08,105.39
0.61,2,-0.44,-4.33,151.56,250.13
0.14,2,-0.52,-22.34,91.84,250.13
-0.69,2,-0.06,-65.79,65.69,250.13
-0.11,2,-0.1,-96.79,94.9,250.13
0.03,1.88,-0.91,-111.44,234.6,250.13
-1.52,1.21,-0.85,-99.74,250.13,250.13
-2,-0.06,-0.14,-54.23,47.4,177.9
-2,0.05,-0.16,-57.53,-77.52,92.61
-0.51,0.07,0,-46.5,-89.7,28.53
-1.7,-0.19,0.14,-48.58,-3.67,-8.01
-2,-0.51,-0.54,-45.71,-145.55,-58.49
-0.33,-0.09,0.04,-58.21,-185.94,-135.69
-0.08,0.27,-0.03,-49.54,-96.53,-182.02
-0.23,0.58,-0.15,-16.61,-24.02,-233.63
-0.69,2,-0.43,-11.1,-58.27,-250.14
-0.88,2,-0.59,-2.14,-65.95,-221.94
0,2,-0.63,23,6.69,-250.14
0.08,2,-0.53,49.36,-31.11,-250.14
0.23,2,-0.02,66.87,-101.05,-250.14
0.62,1.55,-0.13,82.12,-149.36,-219.55
1.9,0.34,-0.48,52.79,-127.05,-77.11
2,-0.97,-0.42,-21.95,-23.24,92.82
2,-0.77,-0.11,-71.74,192.21,67.13
1.47,0.14,-0.31,12.52,250.13,57.83
-1.57,0.38,-0.08,63.51,195.36,104.67
-2,0.61,-0.77,51.08,85.82,116.6
-2,0.44,-0.63,90.17,-105.05,74.39
-1.01,1.17,-1,9.95,-51.29,-27.75
-0.7,-0.28,2,-105.03,-80.27,50.62
2,2,-2,-105.37,-250.14,-236.81
2,-1.6,-2,35.96,91.21,160.48
-0.3,2,-1,-10.4,147.56,250.13
-0.55,2,-0.3,23.21,-18.9,214.11
-0.22,2,0.02,-18.02,13.22,250.13
0.12,2,0.3,-62.99,117.9,250.13
-0.25,2,-0.39,-104.37,250.13,250.13
-1.22,1.09,-0.92,-93.42,250.13,250.13
-2,0.21,-0.57,-58.82,173.96,159.78
-2,0,-0.21,-42.53,-32.84,98.24
-1.26,-0.03,-0.19,-32.24,-104.75,27.53
-1.01,-0.19,0.23,-33,-28.82,-10.11
-2,-0.5,-0.07,-29.34,-63.09,-55.47
-1.06,-0.19,-0.17,-46.87,-150.77,-128.58
-0.19,0.11,0.05,-38.94,-123.66,-191.28
-0.16,0.72,-0.28,-30.14,-36.54,-247.31
-0.81,1.85,-1.83,13.57,-3.34,-250.14
-2,2,-0.09,32.95,-72.33,-250.14
-0.16,2,-0.79,62.29,-44.89,-250.14
0.06,2,-0.65,62.82,27.6,-250.14
-0.81,2,0.12,91.08,-133.65,-250.14
0.68,1.63,-0.06,103.09,-239.08,-221.09
1.72,0.75,-0.34,51.82,-194.37,-80.29
2,-0.37,-0.34,-28.43,-56.59,55.56
2,-0.57,-0.16,-37.98,128.54,95.92
2,-0.32,-0.17,-48.16,250.13,38.24
-0.75,0.57,-0.19,33.11,230.02,124.98
-1.74,0.51,-0.79,37.13,128.69,142.35
-1.74,0.55,-0.79,63.84,-61.26,72.6
-1.17,1.33,-0.87,-42.39,-23.69,-39.91
0.6,-1.26,2,-54.23,5.25,2.28
-0.8,2,-2,-13.86,-173.98,-62.5
2,-0.11,-2,40.84,-11.19,88.32
0.78,2,-0.21,-14.25,129.73,250.13
0.42,2,-0.43,2.44,44.53,250.13
-0.14,2,-0.16,-49.35,82.19,250.13
-0.57,2,-0.17,-88.23,131.29,250.13
-0.81,1.87,-0.68,-101.6,202.57,250.13
-1.01,1.2,-0.75,-77.89,250.13,241.25
-2,0.36,-0.35,-47.89,114.7,169.2
-2,0.07,-0.19,-34.42,-57.7,92.09
-1.18,0.06,0,-39.15,-60.4,18.51
-1.78,-0.23,0,-33.4,-58.14,-18.28
-2,-0.42,-0.39,-36.85,-143.11,-75.07
-0.47,-0.01,-0.09,-61.18,-177,-148.72
0.02,0.32,0.04,-59.67,-107.55,-212.89
-0.12,0.6,-0.05,-22.85,-11.15,-250.14
-0.66,2,-0.86,-9.21,-10.03,-250.14
-0.91,2,-0.37,-10.45,-40.08,-236.79
-0.18,2,-0.64,48.3,-2.15,-250.14
-0.48,2,-0.41,76.89,-48.58,-250.14
-0.11,2,-0.17,97.47,-166.81,-250.14
0.95,1.54,-0.33,89,-183,-205.05
1.68,0.27,-0.45,42.14,-164.05,-45.62
2,-0.92,-0.25,-35.1,-72.51,99.4
2,-0.97,0.29,-85.21,195.67,83.99
1.32,0.25,-0.25,12.04,250.13,94.93
-1.96,0.68,-0.04,44.44,241.98,134.01
-2,0.95,-0.68,32.65,90.69,120.09
-1.46,0.98,-1.48,86.12,-4.5,12.52
-1.3,0.67,-0.59,-134.5,17.76,-90.65
2,-0.94,1.5,63.47,-59.5,34.39
0.86,2,2,-94.27,-195.57,-171.59
2,-0.44,-0.22,43.21,83.27,250.13
-0.61,2,-0.76,-16.98,34.11,250.13
-0.01,2,-0.31,-40.34,57.53,232.11
-0.99,2,0.16,-84.6,67.13,250.13
-0.05,2,-0.06,-119.01,106.69,250.13
0.18,1.47,-0.9,-112.69,214.37,250.13
-1.28,1.4,-1.04,-81.15,250.13,241.82
-2,0.15,-0.41,-43.16,7.88,191.42
-2,-0.15,-0.04,-1.05,-199.1,131.78
-1.02,-0.05,0.29,-11.63,-202.96,61.45
-0.98,-0.21,0.4,-58.91,-18.66,-24.82
-1.84,-0.24,-0.23,-86.33,21.12,-121.53
-1.12,-0.1,0,-75.02,-56.95,-201.58
-0.57,0.22,-0.43,-18.82,-86.21,-250.14
-0.43,2,-0.48,0.36,-101.99,-250.14
-2,2,0.13,27.73,-97.41,-250.14
-0.17,2,-0.43,43.91,-54.37,-250.14
0.25,2,-0.37,46.37,-35.7,-250.14
-0.01,2,-0.34,70.9,-119.3,-250.14
0.63,1.63,-0.12,92.15,-189.78,-240.87
1.8,0.75,-0.51,55.97,-121.93,-127.85
2,-0.34,-0.34,-8.85,-69.91,48.9
2,-0.43,-0.37,-46.15,114.25,80.57
2,-0.44,-0.46,-52.9,250.13,41.65
-1.02,0.5,0.02,19.47,232.6,108.85
-1.95,0.64,-0.68,48.6,110.71,139.05
-1.62,0.73,-0.57,42.66,-89.21,81.09
-1,1.22,-0.88,-18.71,19.15,-49.69
1.38,-1.25,1.83,-43.89,26.31,20.49
-2,1.05,-2,250.13,250.13,83.34
2,-0.2,-2,18.52,64.15,-23.18
1.23,1.77,-0.21,-14.34,106.69,250.13
0.62,2,-0.52,4.23,-10.99,250.13
-1.1,2,0.04,-43.03,55.92,250.13
-0.62,2,0.4,-73.44,67.08,250.13
0.13,2,-0.19,-101.87,208.96,250.13
-1.13,1.48,-0.73,-81.34,250.13,238.33
-2,0.52,-0.49,-65.64,136.5,176.18
-2,-0.12,-0.63,-45.41,-43.18,90.42
-0.96,-0.14,0.22,-38.05,-83.44,45.73
-1.61,-0.36,0.2,-32.72,-38.78,-2.27
-1.68,-0.41,-0.37,-41.09,-93.58,-61.66
-0.71,-0.18,0.06,-56.36,-119.63,-134.71
-0.43,0.04,-0.15,-46.34,-99.45,-169.52
-0.17,0.39,-0.37,-33.03,-50.52,-223.66
-0.8,1.42,-1.87,11.24,-32.69,-250.14
-2,2,1.11,59.58,-79.15,-250.14
-0.06,2,-0.6,53.96,-89.75,-250.14
0.49,2,-0.43,45.05,-35.37,-250.14
0.07,2,0.02,58.52,-107.32,-250.14
0.7,1.79,-0.09,75.91,-156.5,-250.14
1.79,0.6,-0.55,49.7,-101.92,-91.74
2,-0.66,-0.39,-52.4,-24.31,83.24
2,-0.9,0.06,-63.91,163.88,88.47
1.57,-0.08,-0.45,-12.92,250.13,76.6
-1.32,0.36,0.15,59.95,183.52,126.6
-2,0.96,-0.34,38.72,100.8,160.55
-2,0.48,-0.82,139.25,-58.4,70.2
-1.35,1.6,-1.33,-58.44,-8.56,-107.24
0.7,0.05,2,23.95,-145.27,37.16
2,2,2,-111.93,-135.6,-178.83
2,0.6,0.19,57.1,54.6,250.13
-0.32,2,-0.12,-3.82,-1.68,250.13
0.93,2,-0.45,-22.69,100.18,250.13
-1.39,2,-0.12,-87.3,154.66,250.13
-0.95,2,-0.34,-114.99,119.15,250.13
-0.3,1.46,-0.6,-100.95,173.98,250.13
-1.73,1.12,-0.51,-80.15,205.76,242.21
-2,-0.03,-0.12,-54.85,25.24,136.93
-1.19,0.32,-0.11,-77.45,-68.92,67.6
-0.19,0.03,0.34,-55.39,17.47,33.82
-2,-0.33,-0.17,-47.08,-6.22,4.81
-1.91,-0.51,-0.63,-36.66,-155.77,-52.82
-0.74,-0.17,-0.09,-39.14,-185.1,-111.07
-0.33,0.23,-0.09,-45.94,-131.79,-161.34
-0.14,0.66,-0.6,-56.84,-32.45,-228.7
-0.47,1.81,-0.78,-17.82,-38.35,-250.14
-2,2,0.86,34.73,-17.95,-250.14
-0.37,2,-0.52,49.53,-65.55,-250.14
0.63,2,-0.78,59.26,-17.61,-250.14
-0.39,2,-0.39,78.83,-98.89,-250.14
0.26,1.81,-0.23,88.26,-210.28,-250.14
1.73,0.91,-0.62,56.95,-205.02,-126.13
2,-0.21,-0.58,-35.71,-58.98,40.13
2,-0.97,0.29,-50.89,166.64,81.69
1.61,-0.71,-0.1,-28.83,250.13,40.53
-0.64,0.25,-0.1,54.61,144.03,98.34
-0.96,0.62,-0.44,40.11,88.53,149.36
-1,0.76,0.03,21.34,17.78,126.39
-1.35,1.15,-0.68,36.78,20.82,18.43
-1.76,0.48,-1.16,-77.59,100.14,-73.47
2,-1.12,1.25,98.43,-88.35,35.48
0.25,2,2,-242.5,35.08,-104.81
2,-0.51,-1.43,49.26,32.76,215.24
-0.15,2,-1.58,7.27,-29.64,250.13
0.91,2,-0.59,11.87,-11.82,250.13
-0.22,2,0.09,-34.77,51.63,250.13
-0.31,2,0.14,-81.18,142.48,250.13
-0.83,1.39,-0.23,-74.2,250.13,250.13
-2,0.7,-0.46,-65.55,250.13,181.13
-2,0.3,-0.52,-54.02,94.9,82.74
-2,0.19,-0.25,-61.24,24.66,25.79
-1.55,-0.18,-0.26,-41.95,-68.38,-6.08
-1.78,-0.43,0.14,-29.57,-128.72,-33.9
-1.25,-0.16,-0.42,-40.69,-193.74,-88.06
-0.03,0.09,0.23,-62.06,-156,-153.99
-0.06,0.2,0,-63.99,-56.62,-197.21
-0.29,0.71,-0.13,-48.49,14.94,-250.14
-1.23,1.76,-1.58,11.98,-6.58,-250.14
-2,2,-0.66,54.81,-94.69,-250.14
0.07,2,-1.08,64.1,-78.54,-250.14
-0.53,2,-0.41,62.16,-56.63,-250.14
-0.24,2,-0.09,67.34,-169.31,-250.14
0.77,1.43,0.02,64.27,-246.15,-186.06
2,0.64,-0.32,30.26,-219.98,-33.18
2,-0.68,-0.3,-59.74,-40.71,77.03
2,-0.36,-0.26,-46.36,250.13,91.24
1.2,-0.42,-0.21,-7.61,250.13,67.2
-0.86,0.42,-0.4,58.11,212.53,122.59
-1.17,1.05,-0.79,55.22,155.39,147.19
-1.45,0.8,-0.82,43.82,35.63,91.37
-2,1.16,-1.05,-21.79,8.93,-18.86
-0.6,-0.21,0.15,-163.85,-90.18,1.34
1.99,1.5,2,-68.94,-176.99,-13.11
2,2,1.11,112.36,-95.75,-99.96
1.87,0.81,-0.74,-54.16,129.28,250.13
-0.55,2,-0.66,21.44,-30.46,250.13
0.13,2,-0.51,-30.96,75.6,250.13
-0.92,2,0.04,-72.54,92.66,250.13
-0.64,2,-0.21,-88.2,105.94,250.13
-0.53,1.49,-0.36,-84.92,209.05,250.13
-2,0.72,-0.4,-63.5,155.63,217.47
-2,0.29,0.06,-49.6,-5.63,120.32
-1.57,0.09,-0.16,-55.79,-3.41,45.67
-0.94,-0.16,-0.01,-62.89,33.48,-7.37
-2,-0.56,-0.11,-48.09,-40.44,-41.62
-1.63,-0.32,-0.57,-46.32,-190.65,-93.08
-0.37,-0.07,-0.09,-43.77,-196.89,-153.23
-0.1,0.35,-0.2,-40.59,-108.99,-209.85
-0.36,0.78,-0.45,9.18,-22.45,-250.14
-1.44,2,-0.18,6.5,3.1,-250.14
-0.72,2,-0.4,18.53,-47.05,-250.14
0.55,2,-0.77,43.69,-28.74,-250.14
-0.45,2,-0.4,72.63,-88.4,-250.14
-0.04,2,-0.2,92.82,-195.69,-250.14
1.33,1.26,-0.48,68.66,-216.11,-166.88
2,-0.05,-0.69,4.64,-123.01,-9.59
2,-0.85,0.1,-29.42,13.15,93.42
2,-0.73,0.04,-78.98,250.13,19.01
-0.03,0.39,-0.14,19.45,250.13,106.93
-1.76,0.72,-0.33,38.77,180.43,160.04
-1.67,0.81,-0.72,56.44,56.46,79.4
-1.36,1.48,-1.15,-13.35,70.2,-60.85
0.91,-1.53,2,-41.35,50.16,-42.81
-2,-1.57,2,204.11,244.6,84.82
2,2,-1.05,15.81,59.13,-59.76
2,0.46,-0.34,-2.06,90.18,250.13
0.48,2,-0.6,-3.53,26.65,250.13
-1.16,2,-0.16,-62.76,109.43,250.13
-0.95,2,0.17,-99.73,104.77,250.13
-0.14,2,-0.41,-116.47,198.73,250.13
-1.15,1.24,-0.81,-104.2,250.13,250.13
-2,0.31,-0.55,-63.36,95.77,179
-2,0.18,-0.24,-59.53,-52.06,96.21
-1.32,-0.17,-0.16,-46.6,-70.27,44.82
-1.58,-0.39,-0.08,-39.95,-98,1.68
-1.81,-0.47,-0.39,-28.04,-163.16,-47.17
-0.81,-0.09,-0.25,-48.11,-177.35,-118.86
-0.37,0.01,0.03,-49.6,-134.48,-180.24
-0.38,0.42,-0.51,-49.31,-63.5,-234.4
-0.54,1.4,-1.14,-22.11,-50.01,-250.14
-2,2,-0.02,24.22,-26.73,-250.14
-0.46,2,-0.61,38.66,-46.06,-250.14
-0.38,2,-0.41,45.31,-60.56,-250.14
-1.02,2,-0.1,75.22,-147.77,-250.14
0.8,1.73,-0.12,86.92,-217.31,-230.85
2,1.16,-0.51,16.43,-169.73,-119.31
2,0.07,-0.38,-16.82,-63.69,29.22
2,-0.75,0.02,-14.59,250.13,38.48
1.11,-0.34,-0.69,-9.6,250.13,69.5
-0.74,0.44,-0.59,15.17,165.21,174.26
-0.79,0.76,-0.81,44.48,88.88,153.02
-1.82,0.66,-0.28,39.22,-29.02,78.31
-2,1.28,-1.07,-33.69,-36.11,-58.34
1.82,-1.91,2,5.28,-40.36,-28.53
-1.91,2,-2,11.63,102.56,76.22
2,1.09,-2,-36.63,48.73,71.17
-0.08,1.83,-0.03,24.85,9.76,250.13
1.66,2,-0.69,9.47,53.36,250.13
-1.1,2,-0.03,-64.76,128.47,250.13
-1.03,2,-0.18,-83.9,92.35,250.13
-0.09,1.7,-0.54,-84.67,175.08,250.13
-1.32,1.36,-0.56,-64.67,192.88,250.13
-2,0.31,0.08,-36.95,66.53,164.34
-2,0.22,-0.1,-50.54,14.56,74.79
-0.91,-0.05,-0.06,-57.15,-6.01,13.44
-1.67,-0.17,0.31,-56.82,-3.12,-21.24
-1.78,-0.29,-0.44,-44.74,-90.24,-65.34
-0.74,-0.19,-0.06,-54.43,-138.86,-120.39
-0.55,-0.07,-0.15,-43.83,-111.32,-167.15
-0.35,0.45,-0.25,-40.5,-55.92,-228.61
-1,1.11,-1.43,28.24,-51.44,-250.14
-2,2,0.42,35.5,-83.15,-250.14
-0.41,2,-0.59,55.66,-95.99,-250.14
0.01,2,-0.38,38.29,-61.72,-250.14
-0.1,2,-0.29,46.27,-84.27,-250.14
0.57,1.51,0.2,40.4,-170.4,-204.92
1.33,0.52,-0.17,21.89,-197.37,-109.35
2,-0.44,-0.59,20.63,-138.55,30.53
2,-0.21,-0.28,-36.43,190.9,94.92
2,-0.86,0.45,-58.87,250.13,29.42
0.26,0.57,-0.72,22.77,213.44,83.24
-1.08,0.65,-0.8,56.27,150.62,120.19
-2,0.67,-0.42,26.17,59.44,61.28
-2,1.04,-1.49,9.98,-8.24,-19.09
1.2,-1.16,2,-38.41,-113.27,1.02
2,2,-2,-195.6,-10.68,-12.59
2,0.75,0.17,14.55,40.58,175.27
0.13,2,-0.46,16.56,58.62,250.13
1.11,2,-0.24,-21.98,101.49,250.13
-1.4,2,-0.22,-66.79,131.17,250.13
-0.54,2,-0.23,-86.19,117,250.13
-0.49,1.65,-0.53,-95.17,196.67,250.13
-1.35,1.51,-0.67,-73.6,184.9,249.48
-2,0.4,-0.03,-41.39,65.47,177.5
-2,0.05,-0.06,-49.51,-19.18,85.44
-0.65,-0.02,-0.03,-52.05,-14.35,34.45
-1.68,-0.22,0.3,-52.88,17.72,-0.4
-2,-0.38,-0.57,-43.83,-72.5,-55.27
-0.97,-0.3,-0.07,-49.72,-145.95,-114.91
-0.74,-0.11,-0.17,-34.65,-130.05,-162.87
-0.41,0.37,-0.43,-29.47,-83.8,-212.86
-1.01,0.88,-1.97,29.83,-93.47,-250.14
-2,2,-0.45,46.68,-122.3,-250.14
0.11,2,-0.48,39.62,-119.8,-250.14
0.18,2,-0.73,52.12,-113.28,-250.14
-0.15,2,-0.27,29.43,-169.39,-250.14
0.86,1.94,-0.15,49.69,-215.55,-250.14
1.61,0.8,-0.37,18.68,-160.71,-110.9
2,-0.07,-0.69,-30.34,-82.44,63.58
2,-0.93,-0.07,-74.47,250.13,52.02
1.88,-0.87,0.06,-23.49,250.13,25.99
-0.54,0.22,-0.65,55.51,234.15,84.7
-1.11,0.51,-1.08,82.44,122.94,135.66
-1.41,0.93,-0.38,38.82,33.25,102.02
-1.77,1.11,-0.91,2.79,33.15,9.73
-1.89,0.56,-1.06,-172.35,-12.69,-31.95
2,0.83,2,39.94,-122.82,-15.65
2,2,2,131.27,-46.8,-133.18
1.1,1.22,-0.44,-40.48,148.85,250.13
-0.01,2,0.07,-3.34,-14.85,250.13
-0.21,2,-0.64,-59.44,133.39,250.13
-1.23,2,-0.33,-109.1,152.83,250.13
-0.37,2,-0.41,-111.28,132.4,250.13
-0.97,1.45,-0.7,-78.34,183.47,250.13
-2,0.6,-0.34,-51.91,101.65,217.29
-2,0.24,0.06,-37.44,-41.81,119.45
-1.06,0.14,0.17,-54.56,-29.62,57.35
-0.93,-0.12,0.16,-56.66,13.4,16.16
-2,-0.51,-0.16,-47.27,-22.05,-36.76
-1.64,-0.33,-0.55,-54.19,-138.57,-94.9
-0.68,-0.2,-0.13,-36.19,-178.77,-159.86
-0.3,0.45,-0.31,-35.04,-117.18,-213.54
-0.24,0.9,-0.55,-41.37,-27.2,-250.14
-1.2,2,-1.16,2.16,-77.78,-250.14
-0.91,2,-0.19,-19.98,-105.5,-250.14
0.28,2,-1.06,65.69,-48.98,-250.14
0.04,2,-0.54,51.57,-62.98,-250.14
0.15,1.94,-0.02,57.06,-170.31,-250.14
1.17,0.86,-0.52,57,-196.5,-161.51
2,-0.22,-0.55,-8.6,-122.36,10.97
2,-0.98,0.13,-30.81,64.85,104.85
2,-0.76,0.01,-73.78,250.13,28.89
0.04,0.19,-0.34,35.92,211.35,80.07
-1.3,0.37,-0.51,66.91,129.27,132.81
-1.04,1.13,0.01,16.94,23.27,132.64
-1.19,1.15,-0.99,55.89,50.6,20.34
-1.39,0.58,-0.75,-149.69,152.73,-50.15
1.6,0.47,2,-51.76,-120.84,13.79
2,2,1.93,121.62,-164.88,-100.29
2,0.79,-0.09,-5.74,64.76,250.13
-0.21,2,-0.25,-9.74,25.02,250.13
-0.62,2,-0.35,-55.56,133.53,250.13
-1.46,2,-0.25,-92.51,114.14,250.13
-0.22,2,-0.5,-93.53,154.34,250.13
-1.29,1.47,-0.75,-75.09,183.31,250.13
-2,0.35,0.05,-53.18,57.13,214.66
-2,0.27,-0.01,-36.61,-42.03,110.46
-0.92,-0.07,-0.18,-61.92,-22.96,20.27
-1.12,0.15,0.42,-69.21,25.68,-21.62
-2,-0.39,-0.1,-39.64,-43.08,-40.65
-1.29,-0.41,-0.39,-59.28,-122.69,-92.99
-0.9,-0.28,-0.1,-44.02,-144.69,-163.15
-0.6,0.52,-0.81,-39.94,-116.15,-223.28
-0.47,1.66,-1.39,-8.08,-118.76,-250.14
-2,2,0.05,47.5,-78.73,-250.14
-0.24,2,-0.67,31.27,-61.01,-250.14
-0.63,2,-0.56,58.53,-79.24,-250.14
-0.11,2,-0.07,68.41,-209.44,-250.14
1.35,1.86,-0.11,64.3,-185.09,-250.14
2,0.59,-0.45,31.42,-116.76,-119.34
2,-0.32,-0.83,-28.56,-34.24,51.53
2,-0.54,0.04,-66.37,173.37,37.83
2,-0.32,-0.1,-25.78,250.13,61.63
-0.66,0.27,-0.36,25.56,211.66,119.24
-1.44,0.67,-0.51,28.57,145.59,139.22
-1.78,0.67,-0.77,71.16,24.18,69.63
-1.9,1.5,-1.68,-1.85,105.55,-86.66
1.08,-1.54,2,-78.56,-90.44,-26.38
0.7,2,-2,-90.28,4,-45.95
2,0.89,-2,-32.08,77.15,184.26
-1.16,2,-0.69,7.15,53.44,250.13
1.56,2,-0.42,13.79,-7.03,250.13
-1.21,2,-0.01,-79.08,135.08,250.13
-0.9,2,-0.11,-99.96,70.11,250.13
0.17,1.83,-0.53,-102.36,186.83,250.13
-1.86,1.33,-0.72,-79.87,239.33,250.13
-2,0.07,0.07,-53.71,54.11,158.63
-1.74,0.16,-0.19,-70.24,1.34,65.86
-0.95,0.02,-0.04,-59.48,16.85,11.79
-2,-0.36,-0.12,-41.8,-60.55,-24.6
-2,-0.51,-0.73,-25.93,-224.12,-68.86
-0.25,-0.11,-0.02,-41.78,-235.34,-151.85
-0.04,0.58,0,-49.73,-108.53,-221.84
-0.13,0.91,-0.08,-15.66,7.74,-250.14
-1.02,2,-0.24,-13.53,19.93,-250.14
-1.09,2,-0.65,6.14,-31.71,-250.14
0,2,-0.92,60.44,-4.92,-250.14
-0.27,2,-0.5,71.76,-80.37,-250.14
-0.05,1.86,0.21,96.1,-189.4,-250.14
1.54,0.98,-0.33,52.42,-174.9,-179.75
2,-0.31,-0.57,0.58,-130.58,-10.54
2,-0.87,-0.15,-21.89,-15.73,72.8
2,-0.56,-0.24,-74.76,250.13,16.88
-0.04,0.34,-0.47,26.57,250.13,112.73
-1.73,0.36,-0.34,45.55,113.53,166.04
-1.75,1.11,0.04,13.27,-65.07,119.78
-1.23,1.45,-0.94,60.27,-27.64,-1.62
-1.18,-0.04,-0.22,-123.61,248.18,-85.41
-2,-1.04,1.58,250.13,234.29,3.05
2,0.3,-0.55,39.69,180.95,-66.43
2,1.79,-1.65,-20.53,94.25,250.13
0.05,2,-0.3,14.45,-15.89,250.13
0.34,2,-0.23,-36.05,69.52,250.13
-0.99,2,-0.05,-76.87,101.27,250.13
-0.25,2,-0.38,-81.39,140.24,250.13
-1.61,1.3,-0.48,-55.52,179.15,250.13
-2,0.46,0.23,-43.28,79.63,175.91
-2,0.1,0.02,-49.12,-11.25,79.58
-0.4,0.11,-0.03,-55.04,9.41,18.75
-1.47,0.08,0.38,-59.9,77.77,-8.97
-2,-0.44,-0.37,-45.37,-53.05,-42.01
-1.2,-0.38,-0.36,-49.65,-171.92,-89.68
-0.76,-0.11,-0.11,-37.37,-169.58,-159.47
-0.23,0.63,-0.31,-34.13,-75.49,-230.37
-0.51,1.66,-1.87,-15.79,-48.84,-250.14
-2,2,0.7,26.04,-56.31,-250.14
-0.28,2,-0.5,41.72,-42.6,-250.14
0.94,2,-1.03,55.81,-61.02,-250.14
0.19,2,-0.32,48.75,-107.27,-250.14
1,1.42,-0.07,74.94,-182.38,-250.14
2,0.48,-0.65,42.57,-102.34,-100.99
2,-1.39,-0.2,-36.03,-62.22,55.75
2,-0.32,-0.19,-67.67,239.93,9.89
0.76,0.03,-0.28,13.89,221.81,70.34
-1.74,0.25,-0.39,63.15,120.05,139.52
-1.29,1.06,0.2,19.31,-48.04,144.17
-1.21,0.84,-0.78,52.5,-68.77,62.22
-0.58,0.92,-1.11,-31.55,204.66,-82.4
2,-0.93,2,75.44,33.51,56.85
1.61,2,2,-218.03,-93.9,-163.21
2,0.42,-1.23,29.75,79.49,250.13
-0.48,2,-0.51,5.73,-15.87,250.13
0.77,2,-0.45,-25.1,78.67,250.13
-0.98,2,0.14,-80.7,106.04,250.13
-0.47,2,-0.02,-101,134.47,250.13
-0.43,1.43,-0.53,-88.71,250.13,250.13
-2,0.58,-0.47,-73.31,247.48,187.82
-2,0.17,-0.69,-75.57,100.07,75.24
-1.91,-0.17,0.01,-72.5,-13.6,17.47
-2,-0.16,-0.2,-27.22,-153.75,-5.37
-1.89,-0.41,-0.38,-12.76,-250.14,-50.79
-0.07,0.13,-0.17,-51.89,-200.64,-113.44
0.06,0.05,0.22,-71.49,-71.81,-183.44
-0.28,0.39,-0.44,-61.26,9.34,-228.86
-0.75,1.65,-0.8,-4.17,-56.31,-250.14
-2,2,-0.01,31.25,-26.53,-250.14
-0.34,2,-0.64,43.85,-30.4,-250.14
-0.47,2,-0.79,70.72,-95.22,-250.14
-0.41,2,-0.1,87.89,-250.14,-250.14
1.06,1.68,-0.25,82.81,-228.23,-250.14
2,0.37,-0.44,5.47,-132.89,-103.08
2,-0.84,-0.23,-37.22,-57.27,43.45
2,-0.09,-0.56,-49.52,234.18,39.38
1.87,-0.57,-0.17,-15.13,250.13,37.31
-1.16,0.5,-0.37,41.62,191.28,145.76
-1.29,0.86,-0.96,48.99,117,155.18
-1.71,0.75,-0.98,64.86,-42.24,84.2
-1.52,1.57,-1.73,-77.54,71.89,-52.73
-2,0,2,-104.5,-169.74,3.63
2,0.23,2,137.42,-250.14,-250.14
2,-0.02,-0.22,3.32,210.4,250.13
-1.48,2,-0.64,20.58,-37.11,250.13
1.14,2,-0.43,-1.17,28.82,250.13
-0.52,2,-0.17,-66.82,121,250.13
-1.29,2,-0.29,-87.27,68.98,250.13
-0.39,1.68,-0.27,-72.4,109.2,250.13
-1.96,1.03,-0.27,-54.56,171.97,250.13
-2,0.11,0.19,-56.56,47.02,131.2
-1.17,-0.09,-0.14,-68.2,32.16,46.3
-0.64,0.09,0.23,-67.46,72.21,-3.52
-2,-0.17,-0.22,-46.15,-29,-29.08
-1.69,-0.35,-0.4,-31.46,-188.39,-52.69
-0.42,-0.3,0.06,-39.89,-193.27,-127.53
-0.17,0.38,-0.07,-57.82,-95.6,-189.08
-0.16,0.66,0.06,-16.76,-7.07,-250.14
-1.25,2,-0.11,-9.17,3.21,-250.14
-0.86,2,-0.76,-0.44,-44.42,-250.14
-0.39,2,-0.87,51.05,-26.73,-250.14
-0.15,2,-0.56,68.05,-62.51,-250.14
0.28,1.91,0.07,86.4,-160.15,-250.14
1.23,1.36,-0.36,52.91,-182.92,-184.47
2,-0.29,-0.44,8.35,-140.22,-52.52
2,-1.39,0.11,-69.17,0.9,52.68
2,-0.66,-0.03,-64.39,250.13,-6.11
0.29,0.08,-0.58,39.47,241.23,69.71
-1.32,0.24,-0.31,58.98,125.34,149.61
-1.1,0.99,0.02,13.2,-25.86,131.18
-1.39,1.02,-0.91,53.8,-51.34,44.39
-1.1,0.9,-1.43,-61.89,164.07,-87.61
0.23,0.77,2,19.95,-110.68,17.79
2,0.61,2,141.6,-131.64,-200.58
2,1.27,-1.12,11.34,120.64,250.13
-0.58,2,-0.27,32.5,-43.94,250.13
0.41,2,0.11,-11.74,52.32,250.13
-0.89,2,0.26,-63.94,83.21,250.13
-0.18,2,-0.05,-81.67,96.99,250.13
-0.24,1.62,-0.83,-73.74,209.71,250.13
-2,0.54,-0.44,-50.44,214.73,228.39
-2,-0.1,-0.14,-39.61,1.88,123.92
-1.54,-0.17,-0.16,-41.29,-80.6,31.54
-1.1,0.27,0.37,-44.73,-18.66,-18.23
-2,-0.22,0.02,-41.96,-65.33,-52.15
-0.93,-0.17,-0.13,-69.61,-116.4,-110.07
-0.43,-0.07,0.06,-63.95,-93.51,-180.56
-0.44,0.43,-0.08,-25.46,-57.99,-233.56
-0.48,2,-0.21,-10.52,-64.84,-250.14
-1.93,2,-0.22,17.43,-33.34,-250.14
-0.7,2,-0.65,36.4,13.47,-250.14
0.24,2,-0.69,65.21,-50.98,-250.14
0.03,2,-0.16,71.61,-108.88,-250.14
0.87,1.44,-0.04,80.59,-190.55,-218.84
2,0.36,-0.39,23.4,-113.53,-92.74
2,-0.93,-0.13,-33.46,-64.73,35.2
2,-0.22,-0.28,-55.44,180.64,30.92
1.38,-0.1,-0.31,-0.93,242.83,57.94
-1.08,0.1,-0.35,54.79,170.54,130.19
-1.27,0.7,-0.33,24.17,71.51,144.45
-1.63,0.81,-0.33,45.8,-37.29,87.36
-1.31,1.27,-1.15,36,79.11,-67.78
1.83,-1.64,2,-20.4,-54.31,7.92
-2,0.21,-2,250.13,250.13,171.95
2,-1.06,-2,51.01,24.76,-6.48
1.5,1.64,-1.25,-0.55,140.79,250.13
0.43,2,-0.26,14.11,17.14,250.13
-0.6,2,0.16,-48.98,75.42,250.13
-0.19,2,0.19,-86,130.02,250.13
0.22,1.55,-0.49,-90.46,250.13,250.13
-2,1.38,-0.82,-79.91,250.13,227.03
-2,0.13,-0.42,-53.7,72.99,139.65
-1.75,0.29,-0.29,-67.09,-18.63,82.66
-1.07,-0.16,0.08,-53.4,-15.89,31.67
-1.88,-0.27,-0.04,-35.95,-38.04,0.8
-1.99,-0.43,-0.51,-29.82,-145.33,-52.12
-0.64,-0.26,-0.03,-39.32,-193.27,-113.91
-0.3,0.14,-0.2,-38.27,-132.9,-179.92
-0.28,0.52,-0.15,-13.17,-54.17,-249.73
-0.86,2,-0.61,5.95,-79.15,-250.14
-0.68,2,-0.56,-23.65,-56.52,-246.91
-0.06,2,-0.67,42,30.43,-250.14
-0.57,2,-0.6,68.31,-88.48,-250.14
-0.03,2,-0.27,105.21,-187.13,-250.14
1.07,1.43,-0.4,68.52,-202.85,-219.05
2,-0.02,-0.79,46.79,-129.6,-43.13
2,-1.13,0.06,-65.03,-44.45,83.81
2,-0.83,0.04,-83.56,250.13,33.09
0.6,0.15,-0.22,17.7,244.07,92.39
-1.52,0.28,-0.25,54.19,157.6,150.6
-1.54,1.14,-0.1,7.78,12.61,136.98
-1.38,1.16,-0.94,81.58,9.57,6.95
-1.28,0.61,-1.16,-108.42,179.34,-102.19
0.76,-0.39,2,180.27,89.69,-3.47
2,1.57,1.13,68.3,51.41,-94.08
2,1.94,-1.13,10.43,41.63,250.13
0.31,2,-0.37,27.63,-29.11,250.13
0,2,-0.33,-25.4,84.51,250.13
-1.18,2,0.1,-76.98,104.85,250.13
-0.23,2,-0.25,-92.27,144.87,250.13
-0.61,1.39,-0.68,-75.98,250.13,250.13
-2,0.56,-0.5,-53.14,142.3,206.5
-2,-0.01,-0.18,-31.89,-59.15,118.78
-1.2,0.01,0.15,-41.69,-62.29,38.28
-1.36,0.11,0.08,-40.4,-32.73,-10.57
-2,-0.41,-0.07,-34.88,-79.95,-59.16
-1.14,-0.28,-0.17,-60.08,-144.4,-129.12
-0.43,0.05,-0.03,-51.47,-134.61,-199.55
-0.13,0.79,-0.44,-39.45,-58.33,-250.14
-0.53,2,-0.72,-6.69,-47.91,-250.14
-1.38,2,-0.37,-18.47,-36.6,-250.14
-0.37,2,-0.56,33.76,16.31,-250.14
-0.33,2,-0.59,63.12,-56.02,-250.14
0.02,2,-0.17,73.45,-140.69,-250.14
0.81,1.48,-0.17,69.95,-178.92,-242.66
1.97,0.25,-0.43,31.82,-132.06,-104.99
2,-0.96,-0.05,-25.29,-62.78,39.86
2,-0.32,-0.28,-76.28,146.19,43.7
1.71,-0.2,-0.43,-14.24,250.13,69.91
-1.03,0.19,-0.3,41.42,192.27,135.08
-1.3,0.84,-0.11,18.24,70.98,155.5
-2,0.82,-0.81,91.32,-33.02,55.49
-1.61,1.26,-1.74,-77.9,128.88,-100.41
1.21,1.12,2,-34.15,-164.06,53.98
2,2,2,57.48,-138.15,-132.43
2,0.74,-1.66,14.45,67.56,250.13
-0.2,2,-0.31,22.95,-25.26,250.13
0.48,2,0.01,-18,73.73,250.13
-1.18,2,0.31,-75.27,128.83,250.13
-0.26,2,-0.17,-94.37,154.83,250.13
-0.76,1.12,-0.58,-91.47,197.25,250.13
-2,0.67,-0.37,-59.11,112.37,228.68
-2,0.37,0.16,-37.21,-8.5,143.4
-1.43,0.2,-0.09,-46.18,-6.29,74.44
-0.71,0.2,0.33,-54.66,21.77,23.12
-2,-0.45,0.06,-45.82,5.65,-2.11
-1.95,-0.59,-0.58,-45.68,-125.17,-77.88
-0.72,-0.07,-0.33,-42.52,-162.8,-163.11
0.18,1.22,-0.89,-18.18,-162.98,-250.14
-0.74,2,-0.84,-0.44,-21.88,-250.14
-0.54,2,-0.1,-19.02,-4.93,-250.14
-0.35,2,-0.16,21.31,65.77,-250.14
-0.85,2,-0.4,93.46,-16.21,-250.14
0.04,2,-0.21,80.78,-166.57,-250.14
0.9,1.9,-0.15,50.8,-171.11,-250.14
1.93,0.35,-0.62,3.22,-211.27,-144.41
2,-0.87,-0.61,-18.73,-67.47,33.91
2,-1.02,-0.55,-75.28,121.01,26.5
2,0.01,-0.34,-31.47,250.13,51.65
-1.79,0.21,0.11,32.97,189.95,142.98
-2,0.66,-0.25,-0.08,-34.36,77.57
-2,1.19,-1.37,119.47,-100.55,-33.04
0.38,0.06,0.18,-130.82,231.93,-39.39
-2,2,-2,250.13,215.55,17.37
2,-2,-1.38,48.33,148.43,-81.6
0.8,2,-1.36,-44.93,63.57,250.13
0.6,2,-0.63,21.54,-45.61,250.13
-0.67,2,0.02,-24.42,27.2,250.13
-0.3,2,0.45,-70.94,94.5,250.13
-2,-0.31,-0.79,-7.28,24.2,75.87
-1.58,0.08,-0.73,-48.15,-250.14,-19
-0.13,0.08,1,-34.43,-101.22,-37.92
-2,-0.42,-0.51,-26.71,-91.69,-90.86
-0.43,0.13,-0.3,-81.4,-103.36,-161.16
0.14,0.39,0.05,-48.02,7.9,-244.69
-0.48,0.56,-0.43,15.12,58.55,-250.14
-1.2,2,-0.52,38.3,-33.47,-250.14
-1.8,2,-0.56,64.28,-137.98,-250.14
0.4,2,-0.88,51.16,-132.5,-250.14
0.11,2,-0.54,39.11,-42.94,-250.14
-0.15,2,-0.22,63.31,-115.68,-250.14
0.6,1.39,-0.22,43.8,-196.85,-186.71
1.74,0.69,-0.54,1.05,-230.37,-76.16
2,-0.61,-0.29,-15.74,-112.1,-22.91
2,-0.22,-0.39,-37.24,250.13,79.15
2,-0.29,-0.3,-28.91,250.13,50.73
-1.15,0.38,-0.12,4.6,216.69,135.22
-2,0.34,-0.5,79.27,128.74,101.65
-2,0.78,-1.54,87.84,-54.04,32.15
-1.21,1.63,-0.57,-226.71,39.89,13.26
2,0.48,-2,145.19,0.9,-89.35
2,1.74,-2,-6.42,92.6,229.97
-0.62,2,1.62,-23.24,44.69,250.13
1.25,2,-0.91,-35.97,97.81,250.13
-0.29,2,-0.72,-79.23,133.53,250.13
-1.72,2,-0.98,-84.52,21.72,250.13
-1.06,2,-0.58,-62.29,-50.18,250.13
-0.09,1.34,0.17,-46.08,55.7,250.13
-2,0.83,0.51,-32.79,157.55,187.93
-2,-0.03,-0.28,-28.85,49.37,69.15
-0.72,0.32,-0.14,-72.42,9.28,4.14
-0.82,0.05,0.55,-75.88,131.78,-30.64
-2,-0.61,-0.53,-28.48,-28.32,-71.16
-1.29,-0.25,-0.56,-40.27,-187.6,-89.97
-0.26,-0.11,-0.24,-33.19,-170.63,-171.07
-0.46,0.23,-0.51,-19.73,-104.13,-219.21
-0.53,1.17,-1.78,25.62,-72.76,-250.14
-1.51,2,0.17,37.34,-68.32,-250.14
-1.2,2,-0.52,15.95,17.72,-250.14
0.2,2,-0.6,53.82,3.39,-250.14
-0.67,2,-0.09,88.23,-118.42,-250.14
0.47,2,-0.29,95.45,-219.06,-250.14
1.48,1.54,-0.46,43.05,-176.46,-156.11
2,0.26,-0.59,-55.92,-165.24,-12.69
2,-1.52,0.12,-42.66,3.41,126.5
2,-0.61,0.1,-81.09,250.13,46.69
0.74,0.1,-0.78,9.72,250.13,66.5
-1.32,0.74,-0.06,10.83,213.29,147.85
-2,0.89,-0.41,17.92,91.57,75.81
-2,0.7,-2,140.36,-28.06,-33.05
-1.55,1.33,-1.05,-250.14,-44.35,-28.82
2,-1.1,2,107.2,-250.14,53.5
2,2,-2,-242.02,250.13,48.56
1.57,2,1.56,-78.44,178.58,250.13
-1.23,2,-0.46,-9.83,-18.56,250.13
1.46,2,-0.45,-39.21,65.85,250.13
-1.4,2,-0.12,-95.18,109.64,250.13
-0.92,2,-0.35,-90.46,196.35,250.13
-1.88,0.86,-0.48,-77.86,250.13,246.85
-2,0.06,-0.49,-46.4,101.28,105.12
-1.97,0.3,-0.85,-72.85,12.81,39.2
-0.74,0.02,0.55,-83.98,-11.1,24.08
-1.18,-0.13,0.12,-47.27,-44.23,-7.86
-1.56,-0.37,-0.24,-20.91,-127.02,-16.15
-0.56,-0.23,-0.4,-39.56,-156.74,-49.96
-0.59,-0.37,-0.15,-38.82,-117.74,-129.18
-0.59,0.23,-0.4,-30.44,-70.32,-179.47
-1.1,0.95,-2,16.09,-62.54,-246.9
-1.62,2,-0.28,45.93,-103.54,-250.14
-0.97,2,-0.79,33.18,-57.31,-250.14
0.34,2,-0.42,69.47,2.76,-250.14
0.1,2,-0.34,75.49,-130.54,-250.14
0.76,2,-0.55,81.09,-179.64,-250.14
1.75,1.44,-0.66,-3.47,-110.21,-169.52
2,-0.56,-0.41,-7.79,-142.49,1.19
2,-1.11,0.02,-43.5,102.56,79.51
2,-0.56,-0.69,41.81,250.13,-28.17
-0.1,0.4,-0.66,21.41,225.09,109.71
-1.44,0.8,0.56,-26.78,82.22,139.55
-2,0.45,0.61,5.1,-143.54,81.6
-1.88,0.59,-1.74,182.21,-109.06,-5.6
-0.49,1.42,-1.89,-219.76,211.18,-79.5
2,0.79,2,-51.58,-164.63,-40.61
2,2,2,-144.6,250.13,-40.63
2,2,-0.25,-5.31,68.53,250.13
-0.55,2,0.68,33.61,-32.66,250.13
0.23,2,-0.24,-65.74,169.62,250.13
-1.42,2,-0.43,-107.16,198.02,250.13
-1.35,1.71,-0.8,-99.69,215.4,250.13
-2,0.24,-0.59,-45.58,157.52,230.82
-2,0.22,-0.35,-14.57,69.85,132.46
-1.64,0.55,-0.18,-88.79,47.41,43.11
-0.43,-0.01,0.27,-69.3,46.96,22.98
-0.93,-0.12,0.26,-41.77,45.64,4.85
-2,-0.15,-0.32,-17.53,-106.63,0.15
-0.78,-0.17,-0.06,-40.5,-128.26,-19
-0.31,-0.75,-0.22,-41.65,-69.08,-112.44
-0.85,-0.25,-0.32,-22.94,-25.94,-201.4
-1.1,0.43,-1.16,11.78,-69.1,-250.14
-1.4,2,-1.85,64.6,-139.8,-250.14
-2,2,-0.31,44.6,-101.4,-250.14
-0.62,2,-1.04,80.92,-54.99,-250.14
-0.29,2,-0.51,30.13,-66.23,-250.14
0.36,2,0.3,80.72,-171.44,-250.14
1.41,1.51,-0.35,56.41,-169.12,-210.02
2,0.49,-0.99,-1.14,-134.4,-37.12
2,-1.19,-0.06,-8.84,-44.64,40.66
2,-0.07,0.07,-53.34,204.03,5.18
1,0.18,-0.63,16,224.78,65.69
-0.81,0.24,-0.35,7.72,125.93,160.71
-1.44,0.35,0.61,-9.23,-6.73,157.16
-2,0.5,0.2,63.4,-123.79,117.49
-1.66,1.06,-1.27,157.12,58.55,-74.62
-0.02,-0.12,1.78,-213.77,250.13,-109.31
-2,-0.94,-2,250.13,-21.95,57.81
0.89,2,-2,250.13,44.73,44.08
1.94,1.94,-1.7,-25.63,111.1,250.13
-0.28,2,-0.61,-9.97,62.75,250.13
-1.06,2,-0.25,-95.52,147.7,250.13
-1.75,2,-0.38,-118.61,184.22,250.13
-1.67,0.74,-0.41,-113.31,230.75,250.13
-2,-0.12,-0.67,-48.53,151.12,165.21
-2,0.01,-0.11,-64.51,33.79,74.03
-1.36,0.13,-0.46,-64.35,-54.63,22.04
-0.04,0.1,0.42,-57.16,-27.5,-2.54
-2,-0.32,-0.24,-20.5,-86.12,-22.34
-1.27,-0.36,-0.53,-25.78,-158.08,-45.6
-0.39,-0.41,-0.01,-32.8,-126.1,-142.55
-0.46,0.14,-0.04,-30.69,-84.37,-206.34
-0.25,0.79,0,-8.58,-1.41,-250.14
-0.7,2,-0.15,-6.26,-20.6,-250.14
-2,2,-0.49,-17.3,-20.66,-250.14
-0.68,2,-0.74,58.71,-17.5,-250.14
-0.61,2,-0.28,45.61,-67.89,-250.14
-0.13,1.93,0.05,116.8,-185.18,-250.14
0.78,1.67,-0.39,59.31,-148.69,-140.2
2,0.62,-0.61,-4.83,-152.51,-71.23
2,-0.87,-0.35,-30.23,-30.41,12.76
2,0.18,-0.83,-6.21,228.36,31.23
2,0.47,-0.17,-23.91,250.13,56.49
-0.22,0.4,-0.37,-5.13,248.68,103
-1.95,0.26,-0.14,1.6,77.26,120.22
-2,-0.01,-0.67,113.6,-46.34,67.87
-2,1.8,-2,-161.21,-15.59,-108.87
2,-1.87,2,236.76,-230.33,75.69
2,0.31,-2,63.03,142.1,140.72
2,2,-2,-59.45,67.89,126.83
-1.48,1.74,0.3,-61.83,109.13,250.13
0.1,2,-0.53,-19.35,9.92,250.13
-0.9,2,-0.01,-102.56,84.08,250.13
-0.99,2,-0.29,-129.64,148.05,250.13
-1.17,1.17,-0.43,-135.44,228.44,250.13
-2,0.38,-0.49,-69.73,145.15,209.97
-2,0.24,-0.34,-68.89,70.88,119.27
-1.59,-0.05,-0.55,-73.5,-12.18,59.44
-1.05,-0.25,0.22,-68.89,13.95,18.73
-2,-0.94,-0.11,-10.28,-161.92,-19.76
-0.92,-0.13,-0.62,-25.57,-231.11,-75.51
0.03,0.05,0.1,-41.83,-139.47,-148.7
-0.14,0.03,-0.14,-45.94,-57.93,-179.53
-0.6,0.03,-0.46,20.88,-5.82,-240.24
-1.23,2,-0.01,38.47,-97.13,-250.14
-2,2,-0.93,73.19,-112.59,-250.14
-0.32,2,-0.54,71.73,-27.75,-250.14
-1.28,2,-0.4,81.83,-123.83,-250.14
-0.03,2,-0.26,134.05,-233.9,-250.14
1.13,2,-0.7,74.7,-174.75,-189.82
2,1.01,-0.82,-40.76,-61.97,-90.2
2,-0.83,0.15,-16.24,-4.18,14.89
2,-0.02,-0.32,-78.15,250.13,41.71
1.12,0.12,-0.53,-7.98,250.13,90
-1.41,0.48,0.12,-9.46,151.44,172.69
-2,0.77,0.44,-3.35,9.88,135.82
-2,1.11,-2,169.06,-57.78,-20.24
-0.05,-0.07,2,-250.14,250.13,-160.86
-2,-1.33,-2,250.13,35.78,64.64
1.28,2,-2,184.15,-19.34,77.02
0.24,2,0.71,-23.63,60.85,250.13
0.39,2,-0.92,-11.56,29.19,250.13
-1.48,2,-0.12,-120.1,121.56,250.13
-1.65,2,-0.13,-118.82,89,250.13
-0.84,1.31,-0.4,-124.24,152.16,250.13
-2,0.29,-0.35,-49.84,81.85,244.34
-2,0.1,-0.07,-32.65,-14.26,124.2
-1.21,0.2,-0.2,-60.72,-22.2,51.65
0.01,0.03,0.48,-82.3,64.5,10.1
-1.46,-0.25,0.19,-57.56,20.06,-16.4
-1.49,-0.21,-0.36,-41.28,-65.58,-48.94
-0.95,-0.3,-0.41,-41.26,-100.89,-85.47
-1.03,-0.56,-0.39,-24.35,-136.67,-131.93
-0.78,0.02,-0.45,-15.08,-105.69,-206.15
-0.77,1.01,-2,31.82,-89.99,-250.14
-1.95,2,0.92,51.88,-44.1,-250.14
-1.69,2,-0.35,35.43,4.92,-250.14
0.06,2,-0.21,33.08,38.2,-250.14
0.07,2,0.31,64.63,-72.83,-250.14
0.52,2,0.04,73.42,-127.66,-199.61
1.46,1.15,-0.5,5.09,-95.29,-98.68
2,-0.02,-0.39,-20.22,-46.61,-61.32
2,-0.04,-0.1,23.56,178.57,57.34
2,-0.12,-0.25,-18.66,229.22,-11.22
0.54,-0.03,-0.94,23.05,162.21,107.21
-1.22,0.48,-0.22,-28.13,139.41,130.16
-2,0.43,0.22,50.81,-32.15,98.4
-2,1.51,-2,-26.97,-13.08,-49.24
2,0.53,2,-25.89,-221.73,-45.44
2,-0.04,2,-37.11,185.37,-78.4
2,1.88,0.06,-5.91,66.41,250.13
-0.91,2,0.25,-18.37,18.73,250.13
-0.38,2,-0.37,-61.47,73.27,250.13
-1.69,2,-0.05,-117.21,99.83,250.13
-1.14,2,-0.51,-141.76,129.85,250.13
-1.92,0.4,-0.43,-81.45,87.66,250.13
-1.81,0.44,-0.13,-42.75,144.08,175.34
-2,-0.11,-0.34,-79.36,131.71,83.11
-1.21,-0.14,-0.13,-76.51,-7.4,12.75
-2,-0.36,0.08,-36.19,-64.98,-22.56
-2,-0.75,-0.48,15.48,-235.71,-52.97
-0.44,-0.07,-0.29,-10.45,-203.13,-127.17
-0.05,-0.06,0.03,-17.91,-113.78,-198.42
-0.29,0.29,-0.09,-28.98,3.32,-250.14
-0.58,0.53,-0.6,50.7,47.86,-250.14
-2,2,0.77,67.35,-22.15,-250.14
-2,2,-0.7,76.81,-6.27,-250.14
-0.29,2,-1.17,108.24,-129.31,-250.14
-0.47,2,-0.07,86.79,-172.87,-250.14
0.45,1.81,-0.11,104.47,-238.4,-232.27
2,1.19,-0.73,8.05,-121.94,-104.4
2,-0.26,-0.3,-31.76,-81.75,-29.74
2,-0.39,-0.26,45.85,61.78,74.6
2,0.17,0.15,-102.16,250.13,25.4
0.38,0.2,-0.42,29.91,200.2,137.93
-1.23,0.29,-0.39,-4.23,144.89,178.82
-2,0.73,0.18,15.37,-33.53,128.08
-1.97,1.41,-2,72.6,2.78,4.11
-0.73,0.21,0.26,-235.91,169.53,-94.53
2,0.03,2,-111.77,109.27,-40.99
0.86,2,2,215.13,228.82,-197.92
2,-0.08,0.23,-41.78,111.47,250.13
-1.11,2,-0.41,33.18,-17.94,250.13
-1.07,2,-0.29,-128.18,157.54,250.13
-1.6,2,-0.01,-162.06,171.41,250.13
-2,0.92,-0.45,-145.56,220.2,250.13
-2,-0.22,-0.74,-71.58,154.11,201.17
-2,0.2,-0.36,-76.86,71.36,96.38
-1.57,-0.02,-0.26,-88.71,29.37,26.01
-0.96,-0.16,0.15,-70.02,16.2,2.12
-2,-0.78,-0.29,6.04,-160.97,-20.31
-1.39,-0.54,-0.83,16.42,-250.14,-65.29
0.11,-0.13,0.04,-12.27,-193.46,-158.06
-0.03,0.16,-0.17,-33.69,-75.5,-209.94
-0.67,0.35,-0.69,14.34,17.17,-250.14
-1.57,2,-0.08,40.44,-43.99,-250.14
-2,2,-0.96,48.02,-54.69,-250.14
-0.76,2,-0.72,86.72,-33.69,-250.14
-1.98,2,-0.37,109.62,-179.69,-250.14
-0.12,2,-0.29,144.7,-250.14,-250.14
1.37,2,-0.59,67.63,-200.69,-186.3
2,0.66,-0.56,-8.26,-129.6,-104.21
2,-0.54,-0.09,-1.08,-52.61,1.53
2,0.83,-1.04,-111.44,250.13,7.26
1.03,0,-0.04,-85.23,250.13,93.69
-1.21,-0.03,-0.32,10.15,180.76,157.64
-1.74,0.18,0.05,20.91,4.15,133.33
-2,0.79,-1.26,97.82,-122.4,71.38
-1.32,1.08,-2,-158.64,179.08,-144.28
1.01,0.29,2,-56.42,-71.66,-49.08
2,1.37,2,137.96,135.85,-36.02
1.31,1.77,1.67,-98.05,68.6,250.13
-2,2,-0.15,45.54,-67.5,250.13
0.39,2,-0.06,-48.24,62.69,250.13
-1.56,2,0.29,-131.69,142.58,250.13
-0.49,2,-0.75,-173.15,227.77,250.13
-2,0.53,-0.7,-146.15,166.49,250.13
-2,-0.16,-0.12,-25.68,35.3,186.07
-2,0.11,-0.1,-50.58,-16.05,111.11
-0.5,0.14,-0.07,-60.62,-6.31,47.07
-0.87,-0.1,0.29,-84.08,112.02,0.7
-2,-0.91,-0.17,-32.16,-45.46,-13.85
-1.41,-0.5,-0.55,-12.49,-158.27,-74.01
-0.73,-0.47,-0.34,4.77,-151.48,-142.97
-0.71,-0.07,-0.73,3.69,-104.68,-208.73
-0.86,1.4,-1.16,45.75,-141.85,-250.14
-2,2,0.95,70.01,-74.63,-250.14
-0.38,2,0.03,4.48,70.18,-250.14
-1.42,2,-0.31,53.11,75.3,-250.14
-0.88,2,-0.17,100.03,-135.73,-250.14
0.23,2,-0.35,112.56,-189.86,-250.14
2,1.39,-0.75,12.53,-79.95,-103.72
2,-0.15,-0.66,-1.95,-111.32,22.59
2,-0.52,-0.04,-81.35,159.7,43.41
2,0.19,-0.54,0.76,250.13,-0.91
0.02,0.14,-0.76,18.54,239.44,88.42
-1.24,0.3,-0.1,2.18,169.74,129.64
-1.76,0.51,0,26.69,15.3,154.48
-2,0.61,-1.07,83.55,-117.53,73.72
-1.72,0.83,-2,-80.86,40.69,-116.98
2,-0.11,2,124.48,-248.66,165.34
1.2,0.53,-2,155.93,250.13,250.13
2,2,-2,-97.55,-67.59,101.27
-0.07,1.96,-0.4,-45.21,42.79,250.13
-0.06,2,-0.58,-49.88,74.24,250.13
-1.48,2,-0.42,-142.69,152.39,250.13
-1.95,1.73,-0.45,-177.24,227.9,250.13
-2,-0.3,-0.55,-84.66,141.14,244.4
-2,-0.02,-0.41,-49,58.7,136.4
-2,0,-0.26,-71.39,-8.15,42.89
-0.63,-0.14,0.4,-44.52,-92.24,10.67
-0.81,0.06,0.33,-18.85,-99.88,-2.36
-1.05,-0.14,-0.12,-21.37,-74.02,-8.76
-0.51,-0.5,0.13,-55.15,-32.09,-84.76
-0.95,-0.59,-0.11,-50.15,-26.43,-149.44
-1.06,-0.03,-0.31,-28.02,-32.01,-220.4
-1.34,0.31,-1.01,55.04,-67.88,-250.14
-2,2,-0.07,66.02,-176.56,-250.14
-2,2,-0.76,61.89,-99.69,-250.14
-0.69,2,-0.94,78.66,-49.7,-250.14
-0.74,2,-0.63,64.57,-130.37,-250.14
0.29,2,-0.4,132.21,-210.73,-250.14
1.68,1.89,-0.77,42.46,-122.52,-170.99
2,0.25,-0.41,-8.73,-110.63,5.69
2,-1,0.25,-102.95,142.69,72.76
2,-0.05,-0.14,-38.78,250.13,-21.27
-0.21,0.13,-0.35,26.58,156.69,109.48
-0.85,0.43,-0.06,6.09,116.66,147.71
-0.95,0.63,0.17,16.34,-5.93,137.53
-1.41,0.55,-1,63.33,-2.59,75.85
-1.77,0.73,-2,-111.29,198.1,-105.64
1.4,2,2,-159.53,-250.14,10.98
2,2,-0.26,-104.24,175.85,-218.08
2,1.12,0.3,-188.15,208.64,250.13
-2,2,0.31,14.33,-23.84,250.13
-0.08,2,-0.58,-33.99,7.57,250.13
-1.5,2,0.09,-133.82,105.08,250.13
-0.88,2,-0.49,-156.6,113.5,250.13
-1.39,0.64,-0.82,-128.42,125.18,250.13
-2,-0.03,-0.11,-32.98,-6.73,230.75
-2,-0.35,-0.02,20.95,-153.25,154.17
-0.54,0.19,0.12,-20.78,-92.61,45.72
-0.08,0.13,0.69,-94.85,106.47,2.68
-2,-0.86,-0.06,-84.35,84.93,-52.39
-1.82,-0.79,-0.3,-55.42,-47.73,-114.55
-0.95,-0.4,-0.3,-6.24,-148.22,-185.13
-0.66,0.32,-0.54,5.52,-132.37,-241.57
-0.59,1.64,-1.74,26.88,-110.26,-250.14
-2,2,1.18,62.21,-55.53,-250.14
-1.4,2,-0.31,23.69,58.97,-250.14
-1.59,2,-0.78,63.11,-16.11,-250.14
-0.41,2,-0.35,94.04,-129.67,-250.14
0.36,2,-0.24,110.63,-163.83,-241.8
1.84,1.39,-0.47,-9.4,-19.97,-117.03
2,0.08,-0.55,-13.47,-80.73,-12.18
2,-0.76,-0.22,-5.69,6.63,75.11
2,0.18,-0.21,-52.37,250.13,20.3
0.63,0.37,-0.71,1.39,250.13,79.11
-1.09,0.36,0.06,14.4,140.66,160.98
-2,0.47,0.25,7.4,-7.65,124.98
-2,0.27,-0.79,133.82,-214.69,98.58
-1.56,1.03,-2,42.25,74.27,-79.61
-0.61,1.18,2,-88.77,-250.14,143.37
2,2,-2,6.4,151.03,-69.6
2,2,-0.44,-146.68,194.66,250.13
-2,2,-0.02,-17.28,54.53,250.13
0.35,2,-0.51,-9.58,65.4,250.13
-2,2,-0.07,-135.65,162.51,250.13
-1.32,2,-0.62,-151.59,112.63,250.13
-1.27,0.34,-0.59,-131.47,111.54,250.13
-2,0.32,-0.34,-50.32,97.53,205.17
-2,-0.42,0.21,-47.05,-3.28,112.91
-0.85,-0.18,-0.19,-44.08,-73.15,12.98
-0.28,0.08,0.64,-82.86,69.95,-4.42
-2,-0.79,-0.06,-49.02,-14.8,-41.17
-1.24,-0.56,-0.28,-41.82,-95.98,-105.61
-0.55,-0.31,0,-31.06,-105.71,-177.28
-0.47,0.27,-0.11,-28.4,-79.66,-229.96
-0.81,1.21,-2,14.89,-37.02,-250.14
-2,2,0.85,42.08,-53.51,-250.14
-2,2,-0.75,25.97,-7.18,-250.14
-1.07,2,-0.69,61.76,-28.66,-250.14
-0.82,2,-0.27,63.39,-99.47,-250.14
0.29,1.82,-0.05,116.05,-187.59,-237.44
1.58,1.35,-0.45,38.58,-66.75,-111.53
2,0.48,-0.5,-1.99,-72.17,1.21
2,-0.73,-0.24,-27.83,8.66,72.76
2,0.19,0.35,-74.16,250.13,2.82
0.42,0.21,-0.7,6.27,216.06,49.78
-1.16,0.29,-0.12,38.34,113.73,131.51
-1.9,0.54,-0.07,12.85,34.85,103.95
-1.71,0.49,-0.73,79.24,-117.72,76.33
-1.19,0.67,-0.95,8.91,90.19,-50.36
-0.26,-0.27,0.53,-158.69,2.23,33.15
2,0.77,2,2.8,-93.62,33.98
2,2,2,-232.46,250.13,-132.99
2,1.34,2,-250.14,188.33,250.13
-2,1,0.48,-11.38,55.5,250.13
-2,2,-1.45,-98.97,125.98,250.13
-2,2,-0.3,-126.28,121.33,250.13
-0.94,2,-0.55,-168.49,175.56,250.13
-2,-0.25,-0.48,-86.32,58.99,250.13
-1.94,-0.07,0.14,-20.58,-30.85,146.46
-1.55,0.01,0.07,-58.95,6.35,67.14
-0.23,0.31,0.27,-56.94,-10.12,14.5
-0.97,-0.17,0.32,-91.51,116.91,-5.65
-1.62,-0.63,-0.28,-85.04,59.21,-32.99
-1.12,-0.75,-0.13,-63.83,-8.54,-119.85
-1.06,-0.45,-0.32,-23.83,-93.41,-152.87
-0.64,-0.16,-0.51,40.13,-93.02,-198.36
-1.23,2,-0.54,51.16,-250.14,-250.14
-2,2,-0.35,92.76,-73.19,-250.14
-0.45,2,-0.27,52.08,34.24,-250.14
-1.75,2,-0.29,104.37,-15.35,-250.14
-0.96,2,-0.31,116.97,-178.06,-250.14
0.41,2,-0.48,159.03,-250.14,-218.66
1.95,1.72,-0.68,33.34,-105.15,-103.57
2,0.36,-0.48,-25.88,-103.45,-22.69
2,-0.5,-0.25,-114.12,250.13,33.24
1.98,-0.53,0.29,-25.22,250.13,-23.5
-0.74,-0.3,-0.23,72.46,166.89,83.11
-1.31,0.3,-0.79,70.89,34.4,92.63
-1.74,0.34,-0.41,58.29,-0.08,64.57
-1.25,0.94,-2,-28.39,65.62,-33.23
-2,-0.36,2,-87.44,-250.14,19.29
2,2,2,12.66,162.9,-249.47
1.8,0.61,1.54,-143.28,250.13,250.13
-2,2,-0.51,-2.72,21.26,250.13
-0.81,2,-0.26,-57.73,17.05,250.13
-1.23,2,-0.03,-115.51,69.69,250.13
-1.31,2,-0.6,-136.07,60.2,250.13
-0.81,1.12,-0.79,-141.79,99.62,250.13
-2,0.24,-0.18,-82.45,55.54,250.13
-2,-0.32,0.36,-7.82,-54.89,182.6
-0.98,-0.06,-0.2,-33.11,-51.5,72.75
0.28,0.35,0.6,-83.33,106.29,25.94
-2,-0.66,-0.16,-74.17,70.02,-21.82
-2,-1.03,-0.56,-18.08,-140.82,-69.73
-0.51,-0.33,-0.03,3.76,-175.71,-166.17
-0.4,0.31,-0.18,-11.4,-93.21,-228.73
-0.63,1.34,-1.74,-17.44,-12.84,-250.14
-2,2,0.36,9.28,-54.8,-250.14
-1.15,2,-0.52,-10.3,26.27,-250.14
-0.96,2,-0.47,52.37,90.98,-250.14
-1.4,2,-0.38,88.63,-44.4,-250.14
-0.17,1.94,0.02,156.38,-165.57,-250.14
1.07,1.98,-0.61,77.98,-122.83,-176.21
2,0.55,-0.23,3.31,-204.49,-100.6
2,-0.83,-0.19,40.42,-59.92,31.92
2,0.33,-0.5,-104.94,250.13,-9.73
0.72,0.12,-0.77,-9.84,250.13,80.29
-1.39,0.1,0.3,20.2,56.98,187.44
-2,0.45,0.42,60.69,-120.33,65.04
-1.94,0.85,-1.67,112.7,-154.47,-7.26
-0.02,0.66,1.41,-201.78,174.79,-31.78
-2,-1.28,-2,250.13,-54.69,62.2
1.24,2,-0.91,250.13,219.09,-191.76
1.53,0.92,-0.25,-32.21,19.95,250.13
-0.7,2,-0.38,60.6,-39.47,250.13
-0.84,2,-0.18,-111.1,127.52,250.13
-1.77,2,0.14,-121.6,124.93,250.13
-0.21,2,-0.78,-175.72,221.69,250.13
-2,0.49,-0.63,-143.25,173.58,250.13
-2,-0.48,-0.3,-33.72,7.83,182.89
-1.98,-0.08,-0.28,-39.27,-34.14,110.58
-0.58,-0.18,0.38,-58.82,1.57,33.2
-0.81,-0.43,0.41,-71.68,51.98,2.92
-1.93,-0.62,-0.32,-50.26,-16.73,-57.29
-1.21,-0.4,-0.28,-25.21,-115.72,-102.21
-0.69,-0.36,-0.19,-3.72,-138.06,-146.95
-0.46,0,-0.32,-9.1,-108.53,-199.22
-0.56,0.55,-1.18,36.48,-41.16,-250.14
-1.57,2,0.64,46.22,-50.82,-250.14
-2,2,-0.69,34.31,-20.27,-250.14
-1.02,2,-0.61,95.48,19.43,-250.14
-1.23,2,-0.41,91.1,-70.17,-250.14
-0.17,2,-0.36,163.44,-177.9,-250.14
0.81,1.75,-0.39,77.35,-158.2,-123.38
2,0.77,-0.41,-10.79,-114.32,-17.85
2,-0.69,0.16,-63.24,27.56,81.87
2,-0.15,0.37,-54.64,250.13,-4.45
0.62,0.14,-0.76,22.34,218.47,52.66
-1,0.27,-0.22,13.22,124.05,144.81
-1.4,0.53,0.23,0.15,24.27,120.05
-1.63,0.29,-0.53,81.95,-105.89,86.36
-1.47,0.76,-1.91,47.64,132.34,-72.19
-0.07,-0.7,2,-68.41,-125.56,88.62
2,2,-2,101.79,62.6,152.08
2,2,-2,75.5,16.11,51.27
-0.29,2,-0.33,-123.99,119.11,250.13
-0.83,2,-0.87,13.76,34.7,250.13
-1.25,2,-0.01,-124.11,101.44,250.13
-1.22,2,-0.5,-162.23,140.05,250.13
-1.52,0.85,-0.66,-165.35,214.86,250.13
-2,-0.28,-0.55,-71.78,137.7,194.82
-2,-0.43,-0.4,-27.02,2.27,116.63
-1.2,-0.01,0.17,-51.34,-40.79,15.77
-0.49,0,0.29,-56.9,12.41,10.82
-1.69,-0.66,0.06,-55.98,1.74,-46.71
-1.39,-0.7,-0.52,-33.18,-72.73,-84.9
-0.8,-0.48,-0.24,-17.89,-110.39,-141.87
-0.93,-0.17,-0.46,-0.23,-135.85,-191.04
-0.76,0.53,-0.88,-6.14,-108.55,-250.14
-1.14,1.65,-2,58.58,-90.59,-250.14
-2,2,-0.68,108.64,-129.58,-250.14
-0.97,2,-0.6,81.23,-50.32,-250.14
-0.89,2,-0.99,104.92,-67.93,-250.14
-0.16,2,-0.18,94.34,-116.76,-250.14
0.47,1.66,-0.22,55.52,-136.98,-144.05
1.99,0.96,-0.52,-10.05,-117.15,-6.67
2,-0.6,-0.03,-25.01,-76.73,65.89
2,-0.23,0.04,-73.21,243.05,54.69
1.55,0.18,-0.61,-7.53,250.13,4.26
-0.37,0.4,-0.16,17.55,123.5,106.05
-1.58,0.49,-0.09,24.08,85.64,85.79
-2,0.24,-0.51,74.45,-29.47,70.44
-1.59,0.74,-1.88,33.21,62.04,-9.79
-2,0.4,2,-250.14,-166.14,-23.34
2,2,2,107.4,-156.13,-250.14
1.79,-0.89,2,-167.79,250.13,250.13
-1.69,2,-0.08,86.32,-5.55,250.13
-0.04,2,-1.04,-63.05,51.47,250.13
-2,2,-0.02,-102.01,103.35,250.13
-1.21,2,-0.6,-143.11,98.18,250.13
-1.21,1.06,-0.48,-153.66,175.55,250.13
-2,-0.08,-0.19,-92.89,143.83,202.39
-2,-0.09,-0.39,-42.85,61.45,116.23
-1.05,0.15,-0.05,-65.87,22.21,49.43
-0.53,0.09,0.63,-117.56,124.06,12.53
-2,-0.81,-0.25,-68.05,22.26,-21.02
-1.99,-1.11,-0.57,-10.76,-119.71,-70.46
-0.91,-0.59,-0.28,11.03,-184.7,-124.23
-0.62,-0.11,-0.31,5.35,-151.92,-198.35
-0.34,0.42,-0.81,-25.39,-67.92,-250.14
-1.05,1.2,-1.98,55.18,-73.56,-250.14
-2,2,0.18,124.98,-96.92,-250.14
-0.64,2,-0.53,69.37,25.8,-250.14
-0.81,2,-0.68,63.65,-16.28,-250.14
-0.22,2,0.04,97.05,-86.69,-250.14
0.09,2,-0.38,97.85,-131.83,-224.11
1.91,1.27,-0.88,27.69,-66.18,-62.79
2,-0.38,-0.28,-2.44,-111.69,71.12
2,-0.38,0.02,-40.09,169.61,48.6
2,0.33,-0.54,-47.77,250.13,13.75
-0.48,0.18,-0.16,22.96,200.92,130.89
-1.47,0.28,-0.09,38.04,139.37,144
-2,0.55,-0.36,73.47,-57.99,104.74
-1.97,0.87,-1.74,65.52,-24.69,-19.86
-0.45,0.31,1.19,-165.59,-13.79,-20.04
-2,-0.1,-2,250.13,-26.68,148.54
2,2,-1.96,250.13,14.81,-177.47
1.57,2,-0.74,-64.81,123.27,250.13
-0.79,2,-0.32,49.01,25.01,250.13
-0.77,2,-0.16,-111.5,118.29,250.13
-1.49,2,-0.62,-146.38,141.75,250.13
-0.87,1.57,-0.92,-192.89,250.13,250.13
-2,0.01,-0.68,-134.55,211.14,215.23
-2,-0.52,-0.1,-40.76,37.26,144.35
-1.82,-0.08,-0.06,-50.67,2.27,61.88
-0.7,0.09,0.09,-62.15,12.47,11.34
-1.83,-0.43,0.16,-55.3,-7.67,-24.48
-1.85,-0.97,-0.38,-6.89,-122.18,-69.16
-0.7,-0.31,-0.18,-16.85,-135.6,-129.56
-0.55,-0.17,-0.25,-17.09,-114.65,-199.31
-0.61,0.41,-0.73,-28.89,-51.67,-250.14
-1.36,1.66,-2,36.72,-79.63,-250.14
-2,2,-0.03,110.89,-70.7,-250.14
-1.03,2,-0.67,70.9,26.16,-250.14
-1.21,2,-0.46,88.6,-46.8,-250.14
-0.51,2,-0.2,138.06,-129.31,-250.14
0.58,1.85,-0.4,118.97,-147.76,-191.96
1.63,1.11,-0.54,30.45,-141.94,-46.24
2,-0.37,0.03,31.18,-132.59,87.15
2,0.27,-0.64,-101.98,250.13,22.73
1.6,0.23,-0.54,-40.77,250.13,31.89
-1.19,0.21,0.01,2.82,210.69,137.73
-2,0.33,0.11,14.81,42.07,118.97
-2,-0.08,-1.23,165.07,-97.53,58.65
-2,2,0.57,-250.14,65.66,-151.7
2,2,-1.54,-41.06,83.02,-137.22
2,1.53,-2,-234.3,124.21,86.75
-0.31,0.83,-1.44,31.84,61.42,250.13
-1.7,2,-0.32,43.66,97.62,160.62
-0.57,2,0.12,-93.3,125.6,250.13
-1.4,2,-0.16,-102.65,109.23,250.13
-1.13,2,-0.5,-172.9,122.58,250.13
-1.33,0.94,-0.78,-157.79,190.07,250.13
-2,-0.01,-0.35,-105.37,162.72,181.7
-2,-0.41,-0.23,-90.19,93.89,105.29
-1.02,0.04,-0.57,-80.84,11.13,37.7
-1.1,0.08,0.39,-112.36,134.2,11.06
-2,-1.43,-0.66,-22.98,-76.99,-10.34
-1.55,-1.05,-0.48,17.96,-250.14,-85.99
-0.25,-0.04,-0.26,33.45,-234.17,-162.98
-0.15,0.47,-0.19,-9.3,-107.34,-231.67
-0.39,0.89,-0.12,-7.52,36.05,-250.14
-2,2,0.86,7.53,-27.76,-250.14
-2,2,-1.05,26.01,-38.37,-244.02
-0.36,2,-1.29,81.2,24.04,-250.14
-0.39,2,-0.41,89.63,-42.05,-250.14
0.01,1.96,-0.12,151.75,-127.32,-250.14
1.19,1.61,-0.88,98.4,-126.8,-115.02
-1.03,0.44,-0.19,72.5,240.97,90.85
-1.91,1.02,-0.85,72.26,114.2,114.05
-2,0.79,-1.22,98.67,-54.6,33.45
-0.99,1.82,-1.66,-65.58,2.98,-105.9
1.36,-1.36,2,-78.83,2.91,49.12
2,2,-2,-55.26,-227.13,-79.27
2,1.63,-2,-46.42,-27.44,160.19
0.2,2,0.64,-10.21,43.24,250.13
1.43,2,-0.68,3.34,38.98,250.13
-0.92,2,-0.25,-61.29,96.49,250.13
-0.82,2,-0.11,-84.76,70.3,250.13
-0.47,2,-0.35,-92.92,101.09,250.13
-0.27,1.27,-0.43,-70.49,175.53,250.13
-2,0.85,-0.27,-56.73,214.95,201.09
-2,-0.02,-0.29,-50.71,39.82,120.76
-1.53,-0.12,0.03,-55.59,-63.43,47.22
-1.31,0.02,0.05,-40.51,-42.69,-0.81
-2,-0.5,-0.15,-51.2,-93.44,-32.99
-1.21,-0.16,-0.52,-70.37,-192.27,-107.4
-0.15,0.12,0.02,-60.5,-154.55,-176.37
-0.05,0.48,-0.32,-32.4,-64.41,-236.11
-0.05,2,-0.29,-37.66,-38.55,-250.14
-2,2,0.04,2.05,-21.1,-250.14
0.11,2,-0.43,31.9,35.85,-250.14
0.25,2,-0.42,68.35,71.92,-250.14
-0.71,2,-0.17,102.73,-85.33,-250.14
0.01,1.79,-0.03,107.53,-217.79,-232.84
1.72,0.63,-0.59,58.08,-209.73,-115.32
2,-0.52,-0.58,13.87,-107.57,77.66
2,-0.86,-0.15,-75.34,77.04,91.29
2,-0.27,-0.18,-29.96,250.13,53.46
-1.37,0.31,-0.12,45.84,236.1,111.46
-2,0.83,-0.12,14.52,66.39,126.75
-2,0.82,-1.25,107.64,-82.63,9.56
-0.1,1.55,-1.14,-92.71,96.09,-112.15
0.8,0.39,2,-97.11,-52.36,12.08
2,1.33,2,-66.37,31.76,-136.35
1.6,1.32,0.37,3.66,27.63,250.13
0.04,2,-0.54,-6.74,-56.4,250.13
0.8,2,-0.49,-21.67,29.63,250.13
-0.98,2,-0.1,-64.59,63.31,250.13
-0.77,2,-0.01,-89.01,51.14,250.13
-0.21,1.69,-0.41,-96.01,154.91,250.13
-1.18,0.96,-0.51,-65.76,204.5,248.6
-2,0.32,-0.06,-49.54,84.03,156.19
-1.91,0.1,-0.37,-52.08,-45.02,89.15
-1,0.08,0.34,-54.08,-34.66,34.25
-1.93,-0.28,-0.11,-37.87,-32.18,-7.25
-2,-0.46,-0.59,-49.47,-113.6,-60.56
-1.05,-0.07,-0.14,-55.43,-217.14,-141.44
-0.21,0.32,-0.21,-39.18,-169.16,-202.56
0,0.97,0.11,-49.83,-53.21,-246.41
-0.5,1.5,-1.63,10.82,-1.82,-250.14
-2,2,-0.15,-3.36,-61.08,-250.14
0.13,2,-0.62,66.24,-20.42,-250.14
0.52,2,-0.68,67.31,40.37,-250.14
-0.27,2,-0.28,77.95,-54.43,-250.14
0.42,1.56,-0.13,110.27,-209.08,-219.18
2,0.76,-0.8,70.09,-156.62,-70.88
2,-1.26,0.56,-68.47,-79.68,68.81
2,-0.66,0.63,-50.76,167.95,64.18
1.28,0.12,-0.59,37.89,250.13,73.85
-1.78,0.61,-0.41,58.74,240.19,144.41
-2,0.9,0.18,25.97,32.69,116.09
-1.34,1.42,-1.8,72.54,-49.63,-11.92
0.3,-0.34,2,-102.32,-0.02,-20.89
2,2,-2,-77.4,-179.47,-112.64
2,1.14,-2,-33.85,-22.06,158.53
0.27,2,0.43,2.72,49.81,250.13
1.45,2,-0.76,-1.51,64.02,250.13
-0.55,2,-0.48,-51.06,115.71,250.13
-1.06,2,-0.3,-78.84,86.08,250.13
-0.58,2,-0.02,-106.39,137.67,250.13
-0.62,1.14,-0.58,-84.97,206.64,250.13
-1.79,0.58,-0.21,-64.18,250.13,183.69
-2,0.15,-0.48,-81.75,160.21,60.4
-1.91,0.12,-0.5,-68.37,-25.91,42.91
-2,-0.35,-0.33,-16.2,-150.15,26.08
-2,-1,-1.18,5.09,-250.14,-52.07
0.1,0.54,-0.08,-36.31,-250.14,-153.63
0.63,0.61,-0.03,-29.79,-108.56,-217.6
-0.04,1.76,-0.46,-28.67,-8.66,-250.14
-1.53,2,-0.04,-27.95,49.37,-250.14
0.31,2,-0.35,-2.69,8.56,-250.14
0.51,2,-0.35,63.28,73.41,-250.14
-0.44,2,-0.04,95.19,-80.05,-250.14
0.36,2,-0.17,104.92,-187.93,-250.14
1.33,1.15,-0.46,70.72,-154.49,-205.8
2,-0.31,-0.47,2.31,-106.89,-62.66
2,-0.9,-0.14,-41.44,89.71,25.63
2,-0.95,-0.31,-84.63,250.13,7.99
-0.15,-0.04,-0.3,53.92,229.11,54.89
-1.42,0.19,-0.21,113.2,86.34,91.01
-2,1.31,-0.2,41.18,-51.22,64.99
-1.57,1.57,-1.49,27.15,-47.26,-46.8
0.01,-0.34,1.19,-152.42,49.85,-48.62
-2,1.03,-2,250.13,250.13,67.15
2,-0.51,-2,1.02,209.82,-103.54
0.61,1.89,-0.36,-37.95,64.21,250.13
1.13,2,-0.72,-3.2,-26.3,250.13
-1.03,2,-0.1,-68.11,101.39,250.13
-0.93,2,0.02,-95.78,56.62,250.13
0.04,2,-0.45,-103.28,117.52,250.13
-0.17,1.36,-0.43,-76.21,215.72,250.13
-2,0.95,-0.46,-49.47,171.81,218.75
-2,-0.23,-0.42,-33.5,-11.28,117.45
-0.83,0.14,0.27,-58.23,-51.94,62.46
-1.27,-0.01,0.08,-46.37,32.1,9.5
-2,-0.77,-0.2,-42.05,-47.85,-39.01
-1.22,-0.18,-0.41,-55.34,-172.4,-115.45
-0.27,0.04,-0.03,-43.15,-148.84,-185.18
-0.14,0.58,-0.21,-40.23,-59.79,-229.03
-0.6,1.13,-1.47,6.35,-13.88,-250.14
-1.84,2,0.38,2.64,7.09,-250.14
-0.19,2,-0.09,31.17,-4.55,-250.14
0.29,2,-0.71,58.1,2.87,-250.14
-0.41,2,-0.11,75.13,-148.44,-250.14
0.29,2,-0.43,102.02,-205.69,-250.14
1.48,1.04,-0.75,69.27,-220.15,-165.01
2,-0.37,-0.47,-30.47,-170.36,1.53
2,-0.87,-0.18,21.79,30.15,88.07
2,-0.64,-0.62,-78.63,250.13,33.58
-0.78,0.32,0.03,20.18,245.81,145.88
-2,0.52,0.29,41.01,82.44,204.09
-2,0.77,-1.27,105.92,-90.91,57.4
-1.54,1.85,-1.28,-81.15,36.03,-82.87
2,1.23,2,-46.81,-97.86,-11.19
2,2,2,37.21,68.37,0.59
0.34,1.59,-1.44,-9.6,38.09,250.13
0.73,2,-0.79,9.81,-45.67,250.13
-0.16,2,-0.44,-26.95,36.36,250.13
-0.72,2,0.06,-67.62,40.05,250.13
-0.64,2,-0.04,-77.7,30.34,250.13
-0.08,1.33,-0.28,-80.76,137.88,250.13
-1.49,1.11,-0.39,-48.28,161.76,236.45
-2,0.25,0.39,-29.53,5.73,151
-1.26,0,0.1,-40.95,-73.62,64.76
-0.06,0.34,0.56,-61.71,40.85,16.11
-2,-0.21,-0.12,-63.22,70.53,-22.5
-2,-0.57,-0.68,-58.37,-94.55,-82.93
-0.94,-0.17,-0.04,-43.98,-179.34,-164.8
-0.3,0.59,-0.13,-40.86,-120.49,-223.73
0.02,1.15,-0.67,-6.78,-31.82,-250.14
-0.81,2,-0.1,-21.02,29.97,-250.14
-0.63,2,-0.31,-2.3,15.47,-250.14
0.22,2,-0.64,42.02,37.53,-250.14
-0.45,2,-0.09,51.81,-31.77,-250.14
-0.22,1.81,0.06,83.34,-117.66,-250.14
0.99,1.08,-0.29,74.5,-154.08,-185.96
1.87,0.11,-0.67,24.28,-207.56,-63.03
2,-0.87,-0.58,28.31,-86.58,81.89
2,-0.47,-0.44,-108.86,250.13,76.21
0.45,0.07,-0.37,38.46,250.13,99.96
-2,0.49,-0.09,53.73,185.7,183.29
-2,0.94,-0.26,41.18,-20.69,130.04
-1.43,1.71,-1.37,71.97,-69.96,-43.02
0.5,-0.91,2,-92.46,92.88,-76.35
-2,-0.51,-2,250.13,250.13,70.63
2,0.72,-2,34.24,126.53,-26.73
2,1.62,-1.17,-12.61,62.47,250.13
-0.16,2,-0.24,-6.31,20.08,250.13
-0.85,2,-0.12,-65.92,62.78,250.13
-0.75,2,0.14,-108.05,67.48,250.13
-0.1,1.95,-0.69,-112.25,134.68,250.13
-0.35,1.22,-0.91,-82.95,235.34,250.13
-2,0.38,-0.28,-55.65,150.98,209.21
-2,-0.57,0.4,-26.45,-73.02,123.9
-0.92,0.32,0.12,-54.27,-84.75,20.9
-1.61,-0.05,0.16,-68.53,35.65,-38.09
-2,-0.44,-0.38,-65.4,-71.23,-101.54
-0.94,-0.17,-0.18,-66.76,-158.92,-170.42
-0.21,0.35,-0.02,-51.92,-133.16,-229.37
-0.09,1.27,-1.25,-17.21,-63.01,-250.14
-1.09,2,-0.19,-12.64,33.05,-250.14
-0.28,2,-0.15,13.34,20.62,-250.14
0.12,2,-0.54,46.93,13.37,-250.14
0.01,2,-0.26,89.31,-36.92,-250.14
-0.22,1.88,0.07,100.2,-109.05,-250.14
0.59,1.17,-0.22,82.29,-182.93,-184.4
1.94,0.23,-0.47,46.77,-227.04,-59.89
2,-0.69,-0.19,-5.46,-22.75,61.92
2,-0.54,0.43,-125.32,227.82,26.91
0.9,0.16,-0.53,16.95,226.52,63.11
-1.48,0.25,-0.36,74.52,143.85,108.72
-2,0.64,-0.29,38.79,52.78,58.28
-1.52,1.42,-1.43,69.34,36.02,-32.19
1.42,-0.77,2,-64.68,27.18,20.99
-2,2,-2,250.13,250.13,132.77
2,-0.31,-2,5.08,60.98,-21.61
1.72,1.19,0.11,-18.69,72.73,250.13
0.61,2,-0.53,-10.54,31.32,250.13
-1.19,2,0.11,-76.11,85.53,250.13
-0.92,2,0.18,-100.24,54.3,250.13
0.3,1.95,-0.53,-109.21,96.22,250.13
-0.38,1.23,-0.85,-78.36,149.28,250.13
-2,0.5,0.13,-39.89,77.86,250.13
-2,0.18,0.34,-4.44,-62.6,164.79
-0.97,0.38,0.15,-52.33,32.04,75.03
-1.35,-0.07,0.26,-80.91,141.1,6.99
-2,-0.6,-0.51,-66.31,41.3,-67.14
-1.8,-0.39,-0.49,-45.36,-176.41,-127.95
-0.36,0.13,-0.25,-16.1,-209.7,-181.22
0.23,0.85,-0.46,-16.15,-100.51,-237.57
0.03,2,-0.51,-30.46,-50,-250.14
-1.06,2,-0.01,-16.82,-20.13,-233.69
0.02,2,-0.23,47.08,101.82,-250.14
-0.02,2,-0.27,81.65,93.38,-250.14
-0.47,2,0.3,109.86,-83.69,-250.14
0.36,1.61,-0.2,108.2,-177.02,-250.03
1.9,0.4,-0.62,78.17,-164.07,-132.1
2,-0.45,-0.09,-18.23,-101,24.87
2,-0.87,-0.23,-48.89,39.02,27.08
1.96,-0.19,-0.43,-7.5,250.13,48.82
-1.25,0.27,-0.18,50.98,223.15,150.69
-1.95,1.07,0.23,10.94,22.95,136.53
-1.88,1.03,-1.47,124.53,-64.73,-2.05
0.67,-0.01,1.81,-96.98,80.6,-16.95
-1.56,-0.21,2,97.26,250.13,76.79
2,1.02,0.35,-7.75,175.15,-81.76
2,1.11,-0.62,-7.37,12.21,250.13
0.22,2,0.04,1.81,15.59,250.13
-0.94,2,-0.16,-59.66,100.44,250.13
-1.08,2,0.15,-89.06,89.75,250.13
-0.32,2,-0.39,-104.11,139.76,250.13
-1.17,1.1,-0.87,-70.65,143.28,250.13
-2,0.52,-0.16,-38.29,38.35,230.08
-2,0.18,0.23,-18.34,-116.22,152.85
-0.8,0.33,0.22,-31.38,-67.07,66.11
-0.8,0.25,0.52,-55.4,74.08,16.1
-2,-0.57,-0.21,-59.37,34.02,-39.97
-1.9,-0.65,-0.17,-58.89,-162.29,-143.25
-0.5,0.32,-0.56,-42.4,-157.69,-222.47
-0.03,1.81,-1.11,-19.54,-134.94,-250.14
-1.98,2,0.04,-12.14,-56.8,-250.14
0.08,2,-0.39,-6.34,-31.83,-250.14
0.31,2,-0.23,42.32,43.43,-250.14
-0.29,2,-0.26,81.09,-42.13,-250.14
0.14,2,-0.01,77.65,-106.21,-250.14
1.24,1.14,-0.27,24.2,-131.44,-206.15
2,-0.36,-0.36,-35.42,-181.27,-49.2
2,-1.35,-0.2,17.21,-15.02,84.02
2,-0.39,-0.21,-127,250.13,14.12
0.51,0.24,-0.55,35.23,250.13,90.79
-1.69,0.27,-0.31,68.68,142.45,121.59
-2,0.72,-0.88,66.82,5.47,45.54
-1.95,2,-1.57,12.57,-68.95,-53.5
0.65,-0.7,1.98,-101.6,84.2,35.21
2,2,-2,-84.8,-14.02,-152.6
2,-1.34,-2,39.92,67.83,202.75
-0.53,2,-0.33,-17.08,67.1,250.13
0.86,2,-0.68,16.1,-55.2,250.13
-0.02,2,-0.06,-28.6,32.13,250.13
-0.41,2,0.01,-59.38,53.92,250.13
-0.35,2,-0.12,-75.67,117.56,250.13
-0.76,1.53,-0.34,-66.61,206.85,250.13
-2,0.55,-0.01,-47.49,141.99,205.14
-2,0.05,-0.22,-58.79,36.15,89.62
-0.74,0.02,0.04,-62.08,35.52,27.52
-1.93,0.08,0,-51.05,64.62,-14.56
-2,-0.58,-0.23,-41.56,-90.76,-46.82
-0.92,-0.19,-0.29,-50.5,-185.56,-105.5
-0.38,0,-0.16,-43.38,-152.32,-166.93
-0.16,0.59,-0.81,-47.04,-69.15,-227.03
-0.28,2,-1.3,-0.54,-92.44,-250.14
-2,2,0.11,21.48,-54.33,-250.14
-0.18,2,-0.68,43.67,27.75,-250.14
0.12,2,-0.51,70.89,2.4,-250.14
-0.31,2,0.17,86.6,-120.23,-250.14
0.8,1.69,0.12,82.82,-191.92,-243.74
2,0.41,-0.57,32.14,-104.16,-111.05
2,-0.74,-0.36,-42.05,-32.61,60.7
2,-0.82,-0.09,-62.55,166.37,28.63
1.54,0.22,-0.62,25.88,250.13,62.79
-0.9,0.28,-0.42,39.93,222.98,131.72
-1.59,0.74,-0.25,27.73,85.86,146.31
-2,0.66,-0.74,68.21,-67.25,75.36
-1.51,1.14,-1.12,-25.63,5.15,-60.2
2,-1.95,2,68.18,-106.15,17.15
1.61,2,-2,-250.14,53.51,-97.91
2,-0.74,-2,-12,47.73,85.11
0.08,2,-1.9,-11.17,112.27,250.13
-0.5,2,-1.06,-2.87,-10.92,250.13
-0.4,2,-0.03,-40.08,-28.37,250.13
-0.05,2,0.16,-74.5,58.53,250.13
0.11,1.53,-0.2,-83.5,197.33,250.13
-1.58,1.15,-0.61,-65.89,250.13,229.02
-2,-0.02,0.08,-43.76,79.88,159.79
-2,-0.15,0.07,-50.54,-16.04,47.82
-0.94,0.04,0.13,-52.53,-64.81,0.88
-1.61,-0.16,0.16,-50.3,-24.02,-36.76
-1.46,-0.32,-0.49,-57.49,-96.51,-97.02
-0.4,-0.16,-0.05,-60.8,-123.47,-164.76
-0.38,0.23,-0.08,-48.34,-97.61,-215.12
0,0.79,-0.5,-36.48,-31.16,-250.14
-0.86,2,-0.74,-3.83,-27.39,-250.14
-1.54,2,-0.53,-3.51,-38.09,-243.99
0.73,2,-1.07,47.38,12.41,-250.14
0.1,2,0.04,43.82,6.63,-250.14
-0.5,2,0.13,94.34,-118.72,-250.14
0.76,1.31,-0.3,86.27,-190.87,-151.56
1.9,0.36,-0.45,50.48,-154.73,-52.19
2,-0.33,-0.34,-5.34,-6.38,71.34
2,-0.42,-0.09,-89.64,194.31,71.26
1.61,-0.09,0.06,-11.6,250.13,71.68
-0.92,0.15,-0.41,54.37,219.9,110.35
-1.51,0.65,-0.63,33.98,162.12,128.94
-1.74,0.51,-0.68,81.98,40.59,91.87
-1.95,1.16,-1.74,13.1,24.63,-44
2,-1.81,2,29.22,-135.15,24.79
2,2,-2,-250.14,-94.15,-73.76
2,-0.23,-2,13.01,-18.08,105.39
0.61,2,-0.44,-4.33,151.56,250.13
0.14,2,-0.52,-22.34,91.84,250.13
-0.69,2,-0.06,-65.79,65.69,250.13
-0.11,2,-0.1,-96.79,94.9,250.13
0.03,1.88,-0.91,-111.44,234.6,250.13
-1.52,1.21,-0.85,-99.74,250.13,250.13
-2,-0.06,-0.14,-54.23,47.4,177.9
-2,0.05,-0.16,-57.53,-77.52,92.61
-0.51,0.07,0,-46.5,-89.7,28.53
-1.7,-0.19,0.14,-48.58,-3.67,-8.01
-2,-0.51,-0.54,-45.71,-145.55,-58.49
-0.33,-0.09,0.04,-58.21,-185.94,-135.69
-0.08,0.27,-0.03,-49.54,-96.53,-182.02
-0.23,0.58,-0.15,-16.61,-24.02,-233.63
-0.69,2,-0.43,-11.1,-58.27,-250.14
-0.88,2,-0.59,-2.14,-65.95,-221.94
0,2,-0.63,23,6.69,-250.14
0.08,2,-0.53,49.36,-31.11,-250.14
0.23,2,-0.02,66.87,-101.05,-250.14
0.62,1.55,-0.13,82.12,-149.36,-219.55
1.9,0.34,-0.48,52.79,-127.05,-77.11
2,-0.97,-0.42,-21.95,-23.24,92.82
2,-0.77,-0.11,-71.74,192.21,67.13
1.47,0.14,-0.31,12.52,250.13,57.83
-1.57,0.38,-0.08,63.51,195.36,104.67
-2,0.61,-0.77,51.08,85.82,116.6
-2,0.44,-0.63,90.17,-105.05,74.39
-1.01,1.17,-1,9.95,-51.29,-27.75
-0.7,-0.28,2,-105.03,-80.27,50.62
2,2,-2,-105.37,-250.14,-236.81
2,-1.6,-2,35.96,91.21,160.48
-0.3,2,-1,-10.4,147.56,250.13
-0.55,2,-0.3,23.21,-18.9,214.11
-0.22,2,0.02,-18.02,13.22,250.13
0.12,2,0.3,-62.99,117.9,250.13
-0.25,2,-0.39,-104.37,250.13,250.13
-1.22,1.09,-0.92,-93.42,250.13,250.13
-2,0.21,-0.57,-58.82,173.96,159.78
-2,0,-0.21,-42.53,-32.84,98.24
-1.26,-0.03,-0.19,-32.24,-104.75,27.53
-1.01,-0.19,0.23,-33,-28.82,-10.11
-2,-0.5,-0.07,-29.34,-63.09,-55.47
-1.06,-0.19,-0.17,-46.87,-150.77,-128.58
-0.19,0.11,0.05,-38.94,-123.66,-191.28
-0.16,0.72,-0.28,-30.14,-36.54,-247.31
-0.81,1.85,-1.83,13.57,-3.34,-250.14
-2,2,-0.09,32.95,-72.33,-250.14
-0.16,2,-0.79,62.29,-44.89,-250.14
0.06,2,-0.65,62.82,27.6,-250.14
-0.81,2,0.12,91.08,-133.65,-250.14
0.68,1.63,-0.06,103.09,-239.08,-221.09
1.72,0.75,-0.34,51.82,-194.37,-80.29
2,-0.37,-0.34,-28.43,-56.59,55.56
2,-0.57,-0.16,-37.98,128.54,95.92
2,-0.32,-0.17,-48.16,250.13,38.24
-0.75,0.57,-0.19,33.11,230.02,124.98
-1.74,0.51,-0.79,37.13,128.69,142.35
-1.74,0.55,-0.79,63.84,-61.26,72.6
-1.17,1.33,-0.87,-42.39,-23.69,-39.91
0.6,-1.26,2,-54.23,5.25,2.28
-0.8,2,-2,-13.86,-173.98,-62.5
2,-0.11,-2,40.84,-11.19,88.32
0.78,2,-0.21,-14.25,129.73,250.13
0.42,2,-0.43,2.44,44.53,250.13
-0.14,2,-0.16,-49.35,82.19,250.13
-0.57,2,-0.17,-88.23,131.29,250.13
-0.81,1.87,-0.68,-101.6,202.57,250.13
-1.01,1.2,-0.75,-77.89,250.13,241.25
-2,0.36,-0.35,-47.89,114.7,169.2
-2,0.07,-0.19,-34.42,-57.7,92.09
-1.18,0.06,0,-39.15,-60.4,18.51
-1.78,-0.23,0,-33.4,-58.14,-18.28
-2,-0.42,-0.39,-36.85,-143.11,-75.07
-0.47,-0.01,-0.09,-61.18,-177,-148.72
0.02,0.32,0.04,-59.67,-107.55,-212.89
-0.12,0.6,-0.05,-22.85,-11.15,-250.14
-0.66,2,-0.86,-9.21,-10.03,-250.14
-0.91,2,-0.37,-10.45,-40.08,-236.79
-0.18,2,-0.64,48.3,-2.15,-250.14
-0.48,2,-0.41,76.89,-48.58,-250.14
-0.11,2,-0.17,97.47,-166.81,-250.14
0.95,1.54,-0.33,89,-183,-205.05
1.68,0.27,-0.45,42.14,-164.05,-45.62
2,-0.92,-0.25,-35.1,-72.51,99.4
2,-0.97,0.29,-85.21,195.67,83.99
1.32,0.25,-0.25,12.04,250.13,94.93
-1.96,0.68,-0.04,44.44,241.98,134.01
-2,0.95,-0.68,32.65,90.69,120.09
-1.46,0.98,-1.48,86.12,-4.5,12.52
-1.3,0.67,-0.59,-134.5,17.76,-90.65
2,-0.94,1.5,63.47,-59.5,34.39
0.86,2,2,-94.27,-195.57,-171.59
2,-0.44,-0.22,43.21,83.27,250.13
-0.61,2,-0.76,-16.98,34.11,250.13
-0.01,2,-0.31,-40.34,57.53,232.11
-0.99,2,0.16,-84.6,67.13,250.13
-0.05,2,-0.06,-119.01,106.69,250.13
0.18,1.47,-0.9,-112.69,214.37,250.13
-1.28,1.4,-1.04,-81.15,250.13,241.82
-2,0.15,-0.41,-43.16,7.88,191.42
-2,-0.15,-0.04,-1.05,-199.1,131.78
-1.02,-0.05,0.29,-11.63,-202.96,61.45
-0.98,-0.21,0.4,-58.91,-18.66,-24.82
-1.84,-0.24,-0.23,-86.33,21.12,-121.53
-1.12,-0.1,0,-75.02,-56.95,-201.58
-0.57,0.22,-0.43,-18.82,-86.21,-250.14
-0.43,2,-0.48,0.36,-101.99,-250.14
-2,2,0.13,27.73,-97.41,-250.14
-0.17,2,-0.43,43.91,-54.37,-250.14
0.25,2,-0.37,46.37,-35.7,-250.14
-0.01,2,-0.34,70.9,-119.3,-250.14
0.63,1.63,-0.12,92.15,-189.78,-240.87
1.8,0.75,-0.51,55.97,-121.93,-127.85
2,-0.34,-0.34,-8.85,-69.91,48.9
2,-0.43,-0.37,-46.15,114.25,80.57
2,-0.44,-0.46,-52.9,250.13,41.65
-1.02,0.5,0.02,19.47,232.6,108.85
-1.95,0.64,-0.68,48.6,110.71,139.05
-1.62,0.73,-0.57,42.66,-89.21,81.09
-1,1.22,-0.88,-18.71,19.15,-49.69
1.38,-1.25,1.83,-43.89,26.31,20.49
-2,1.05,-2,250.13,250.13,83.34
2,-0.2,-2,18.52,64.15,-23.18
1.23,1.77,-0.21,-14.34,106.69,250.13
0.62,2,-0.52,4.23,-10.99,250.13
-1.1,2,0.04,-43.03,55.92,250.13
-0.62,2,0.4,-73.44,67.08,250.13
0.13,2,-0.19,-101.87,208.96,250.13
-1.13,1.48,-0.73,-81.34,250.13,238.33
-2,0.52,-0.49,-65.64,136.5,176.18
-2,-0.12,-0.63,-45.41,-43.18,90.42
-0.96,-0.14,0.22,-38.05,-83.44,45.73
-1.61,-0.36,0.2,-32.72,-38.78,-2.27
-1.68,-0.41,-0.37,-41.09,-93.58,-61.66
-0.71,-0.18,0.06,-56.36,-119.63,-134.71
-0.43,0.04,-0.15,-46.34,-99.45,-169.52
-0.17,0.39,-0.37,-33.03,-50.52,-223.66
-0.8,1.42,-1.87,11.24,-32.69,-250.14
-2,2,1.11,59.58,-79.15,-250.14
-0.06,2,-0.6,53.96,-89.75,-250.14
0.49,2,-0.43,45.05,-35.37,-250.14
0.07,2,0.02,58.52,-107.32,-250.14
0.7,1.79,-0.09,75.91,-156.5,-250.14
1.79,0.6,-0.55,49.7,-101.92,-91.74
2,-0.66,-0.39,-52.4,-24.31,83.24
2,-0.9,0.06,-63.91,163.88,88.47
1.57,-0.08,-0.45,-12.92,250.13,76.6
-1.32,0.36,0.15,59.95,183.52,126.6
-2,0.96,-0.34,38.72,100.8,160.55
-2,0.48,-0.82,139.25,-58.4,70.2
-1.35,1.6,-1.33,-58.44,-8.56,-107.24
0.7,0.05,2,23.95,-145.27,37.16
2,2,2,-111.93,-135.6,-178.83
2,0.6,0.19,57.1,54.6,250.13
-0.32,2,-0.12,-3.82,-1.68,250.13
0.93,2,-0.45,-22.69,100.18,250.13
-1.39,2,-0.12,-87.3,154.66,250.13
-0.95,2,-0.34,-114.99,119.15,250.13
-0.3,1.46,-0.6,-100.95,173.98,250.13
-1.73,1.12,-0.51,-80.15,205.76,242.21
-2,-0.03,-0.12,-54.85,25.24,136.93
-1.19,0.32,-0.11,-77.45,-68.92,67.6
-0.19,0.03,0.34,-55.39,17.47,33.82
-2,-0.33,-0.17,-47.08,-6.22,4.81
-1.91,-0.51,-0.63,-36.66,-155.77,-52.82
-0.74,-0.17,-0.09,-39.14,-185.1,-111.07
-0.33,0.23,-0.09,-45.94,-131.79,-161.34
-0.14,0.66,-0.6,-56.84,-32.45,-228.7
-0.47,1.81,-0.78,-17.82,-38.35,-250.14
-2,2,0.86,34.73,-17.95,-250.14
-0.37,2,-0.52,49.53,-65.55,-250.14
0.63,2,-0.78,59.26,-17.61,-250.14
-0.39,2,-0.39,78.83,-98.89,-250.14
0.26,1.81,-0.23,88.26,-210.28,-250.14
1.73,0.91,-0.62,56.95,-205.02,-126.13
2,-0.21,-0.58,-35.71,-58.98,40.13
2,-0.97,0.29,-50.89,166.64,81.69
1.61,-0.71,-0.1,-28.83,250.13,40.53
-0.64,0.25,-0.1,54.61,144.03,98.34
-0.96,0.62,-0.44,40.11,88.53,149.36
-1,0.76,0.03,21.34,17.78,126.39
-1.35,1.15,-0.68,36.78,20.82,18.43
-1.76,0.48,-1.16,-77.59,100.14,-73.47
2,-1.12,1.25,98.43,-88.35,35.48
0.25,2,2,-242.5,35.08,-104.81
2,-0.51,-1.43,49.26,32.76,215.24
-0.15,2,-1.58,7.27,-29.64,250.13
0.91,2,-0.59,11.87,-11.82,250.13
-0.22,2,0.09,-34.77,51.63,250.13
-0.31,2,0.14,-81.18,142.48,250.13
-0.83,1.39,-0.23,-74.2,250.13,250.13
-2,0.7,-0.46,-65.55,250.13,181.13
-2,0.3,-0.52,-54.02,94.9,82.74
-2,0.19,-0.25,-61.24,24.66,25.79
-1.55,-0.18,-0.26,-41.95,-68.38,-6.08
-1.78,-0.43,0.14,-29.57,-128.72,-33.9
-1.25,-0.16,-0.42,-40.69,-193.74,-88.06
-0.03,0.09,0.23,-62.06,-156,-153.99
-0.06,0.2,0,-63.99,-56.62,-197.21
-0.29,0.71,-0.13,-48.49,14.94,-250.14
-1.23,1.76,-1.58,11.98,-6.58,-250.14
-2,2,-0.66,54.81,-94.69,-250.14
0.07,2,-1.08,64.1,-78.54,-250.14
-0.53,2,-0.41,62.16,-56.63,-250.14
-0.24,2,-0.09,67.34,-169.31,-250.14
0.77,1.43,0.02,64.27,-246.15,-186.06
2,0.64,-0.32,30.26,-219.98,-33.18
2,-0.68,-0.3,-59.74,-40.71,77.03
2,-0.36,-0.26,-46.36,250.13,91.24
1.2,-0.42,-0.21,-7.61,250.13,67.2
-0.86,0.42,-0.4,58.11,212.53,122.59
-1.17,1.05,-0.79,55.22,155.39,147.19
-1.45,0.8,-0.82,43.82,35.63,91.37
-2,1.16,-1.05,-21.79,8.93,-18.86
-0.6,-0.21,0.15,-163.85,-90.18,1.34
1.99,1.5,2,-68.94,-176.99,-13.11
2,2,1.11,112.36,-95.75,-99.96
1.87,0.81,-0.74,-54.16,129.28,250.13
-0.55,2,-0.66,21.44,-30.46,250.13
0.13,2,-0.51,-30.96,75.6,250.13
-0.92,2,0.04,-72.54,92.66,250.13
-0.64,2,-0.21,-88.2,105.94,250.13
-0.53,1.49,-0.36,-84.92,209.05,250.13
-2,0.72,-0.4,-63.5,155.63,217.47
-2,0.29,0.06,-49.6,-5.63,120.32
-1.57,0.09,-0.16,-55.79,-3.41,45.67
-0.94,-0.16,-0.01,-62.89,33.48,-7.37
-2,-0.56,-0.11,-48.09,-40.44,-41.62
-1.63,-0.32,-0.57,-46.32,-190.65,-93.08
-0.37,-0.07,-0.09,-43.77,-196.89,-153.23
-0.1,0.35,-0.2,-40.59,-108.99,-209.85
-0.36,0.78,-0.45,9.18,-22.45,-250.14
-1.44,2,-0.18,6.5,3.1,-250.14
-0.72,2,-0.4,18.53,-47.05,-250.14
0.55,2,-0.77,43.69,-28.74,-250.14
-0.45,2,-0.4,72.63,-88.4,-250.14
-0.04,2,-0.2,92.82,-195.69,-250.14
1.33,1.26,-0.48,68.66,-216.11,-166.88
2,-0.05,-0.69,4.64,-123.01,-9.59
2,-0.85,0.1,-29.42,13.15,93.42
2,-0.73,0.04,-78.98,250.13,19.01
-0.03,0.39,-0.14,19.45,250.13,106.93
-1.76,0.72,-0.33,38.77,180.43,160.04
-1.67,0.81,-0.72,56.44,56.46,79.4
-1.36,1.48,-1.15,-13.35,70.2,-60.85
0.91,-1.53,2,-41.35,50.16,-42.81
-2,-1.57,2,204.11,244.6,84.82
2,2,-1.05,15.81,59.13,-59.76
2,0.46,-0.34,-2.06,90.18,250.13
0.48,2,-0.6,-3.53,26.65,250.13
-1.16,2,-0.16,-62.76,109.43,250.13
-0.95,2,0.17,-99.73,104.77,250.13
-0.14,2,-0.41,-116.47,198.73,250.13
-1.15,1.24,-0.81,-104.2,250.13,250.13
-2,0.31,-0.55,-63.36,95.77,179
-2,0.18,-0.24,-59.53,-52.06,96.21
-1.32,-0.17,-0.16,-46.6,-70.27,44.82
-1.58,-0.39,-0.08,-39.95,-98,1.68
-1.81,-0.47,-0.39,-28.04,-163.16,-47.17
-0.81,-0.09,-0.25,-48.11,-177.35,-118.86
-0.37,0.01,0.03,-49.6,-134.48,-180.24
-0.38,0.42,-0.51,-49.31,-63.5,-234.4
-0.54,1.4,-1.14,-22.11,-50.01,-250.14
-2,2,-0.02,24.22,-26.73,-250.14
-0.46,2,-0.61,38.66,-46.06,-250.14
-0.38,2,-0.41,45.31,-60.56,-250.14
-1.02,2,-0.1,75.22,-147.77,-250.14
0.8,1.73,-0.12,86.92,-217.31,-230.85
2,1.16,-0.51,16.43,-169.73,-119.31
2,0.07,-0.38,-16.82,-63.69,29.22
2,-0.75,0.02,-14.59,250.13,38.48
1.11,-0.34,-0.69,-9.6,250.13,69.5
-0.74,0.44,-0.59,15.17,165.21,174.26
-0.79,0.76,-0.81,44.48,88.88,153.02
-1.82,0.66,-0.28,39.22,-29.02,78.31
-2,1.28,-1.07,-33.69,-36.11,-58.34
1.82,-1.91,2,5.28,-40.36,-28.53
-1.91,2,-2,11.63,102.56,76.22
2,1.09,-2,-36.63,48.73,71.17
-0.08,1.83,-0.03,24.85,9.76,250.13
1.66,2,-0.69,9.47,53.36,250.13
-1.1,2,-0.03,-64.76,128.47,250.13
-1.03,2,-0.18,-83.9,92.35,250.13
-0.09,1.7,-0.54,-84.67,175.08,250.13
-1.32,1.36,-0.56,-64.67,192.88,250.13
-2,0.31,0.08,-36.95,66.53,164.34
-2,0.22,-0.1,-50.54,14.56,74.79
-0.91,-0.05,-0.06,-57.15,-6.01,13.44
-1.67,-0.17,0.31,-56.82,-3.12,-21.24
-1.78,-0.29,-0.44,-44.74,-90.24,-65.34
-0.74,-0.19,-0.06,-54.43,-138.86,-120.39
-0.55,-0.07,-0.15,-43.83,-111.32,-167.15
-0.35,0.45,-0.25,-40.5,-55.92,-228.61
-1,1.11,-1.43,28.24,-51.44,-250.14
-2,2,0.42,35.5,-83.15,-250.14
-0.41,2,-0.59,55.66,-95.99,-250.14
0.01,2,-0.38,38.29,-61.72,-250.14
-0.1,2,-0.29,46.27,-84.27,-250.14
0.57,1.51,0.2,40.4,-170.4,-204.92
1.33,0.52,-0.17,21.89,-197.37,-109.35
2,-0.44,-0.59,20.63,-138.55,30.53
2,-0.21,-0.28,-36.43,190.9,94.92
2,-0.86,0.45,-58.87,250.13,29.42
0.26,0.57,-0.72,22.77,213.44,83.24
-1.08,0.65,-0.8,56.27,150.62,120.19
-2,0.67,-0.42,26.17,59.44,61.28
-2,1.04,-1.49,9.98,-8.24,-19.09
1.2,-1.16,2,-38.41,-113.27,1.02
2,2,-2,-195.6,-10.68,-12.59
2,0.75,0.17,14.55,40.58,175.27
0.13,2,-0.46,16.56,58.62,250.13
1.11,2,-0.24,-21.98,101.49,250.13
-1.4,2,-0.22,-66.79,131.17,250.13
-0.54,2,-0.23,-86.19,117,250.13
-0.49,1.65,-0.53,-95.17,196.67,250.13
-1.35,1.51,-0.67,-73.6,184.9,249.48
-2,0.4,-0.03,-41.39,65.47,177.5
-2,0.05,-0.06,-49.51,-19.18,85.44
-0.65,-0.02,-0.03,-52.05,-14.35,34.45
-1.68,-0.22,0.3,-52.88,17.72,-0.4
-2,-0.38,-0.57,-43.83,-72.5,-55.27
-0.97,-0.3,-0.07,-49.72,-145.95,-114.91
-0.74,-0.11,-0.17,-34.65,-130.05,-162.87
-0.41,0.37,-0.43,-29.47,-83.8,-212.86
-1.01,0.88,-1.97,29.83,-93.47,-250.14
-2,2,-0.45,46.68,-122.3,-250.14
0.11,2,-0.48,39.62,-119.8,-250.14
0.18,2,-0.73,52.12,-113.28,-250.14
-0.15,2,-0.27,29.43,-169.39,-250.14
0.86,1.94,-0.15,49.69,-215.55,-250.14
1.61,0.8,-0.37,18.68,-160.71,-110.9
2,-0.07,-0.69,-30.34,-82.44,63.58
2,-0.93,-0.07,-74.47,250.13,52.02
1.88,-0.87,0.06,-23.49,250.13,25.99
-0.54,0.22,-0.65,55.51,234.15,84.7
-1.11,0.51,-1.08,82.44,122.94,135.66
-1.41,0.93,-0.38,38.82,33.25,102.02
-1.77,1.11,-0.91,2.79,33.15,9.73
-1.89,0.56,-1.06,-172.35,-12.69,-31.95
2,0.83,2,39.94,-122.82,-15.65
2,2,2,131.27,-46.8,-133.18
1.1,1.22,-0.44,-40.48,148.85,250.13
-0.01,2,0.07,-3.34,-14.85,250.13
-0.21,2,-0.64,-59.44,133.39,250.13
-1.23,2,-0.33,-109.1,152.83,250.13
-0.37,2,-0.41,-111.28,132.4,250.13
-0.97,1.45,-0.7,-78.34,183.47,250.13
-2,0.6,-0.34,-51.91,101.65,217.29
-2,0.24,0.06,-37.44,-41.81,119.45
-1.06,0.14,0.17,-54.56,-29.62,57.35
-0.93,-0.12,0.16,-56.66,13.4,16.16
-2,-0.51,-0.16,-47.27,-22.05,-36.76
-1.64,-0.33,-0.55,-54.19,-138.57,-94.9
-0.68,-0.2,-0.13,-36.19,-178.77,-159.86
-0.3,0.45,-0.31,-35.04,-117.18,-213.54
-0.24,0.9,-0.55,-41.37,-27.2,-250.14
-1.2,2,-1.16,2.16,-77.78,-250.14
-0.91,2,-0.19,-19.98,-105.5,-250.14
0.28,2,-1.06,65.69,-48.98,-250.14
0.04,2,-0.54,51.57,-62.98,-250.14
0.15,1.94,-0.02,57.06,-170.31,-250.14
1.17,0.86,-0.52,57,-196.5,-161.51
2,-0.22,-0.55,-8.6,-122.36,10.97
2,-0.98,0.13,-30.81,64.85,104.85
2,-0.76,0.01,-73.78,250.13,28.89
0.04,0.19,-0.34,35.92,211.35,80.07
-1.3,0.37,-0.51,66.91,129.27,132.81
-1.04,1.13,0.01,16.94,23.27,132.64
-1.19,1.15,-0.99,55.89,50.6,20.34
-1.39,0.58,-0.75,-149.69,152.73,-50.15
1.6,0.47,2,-51.76,-120.84,13.79
2,2,1.93,121.62,-164.88,-100.29
2,0.79,-0.09,-5.74,64.76,250.13
-0.21,2,-0.25,-9.74,25.02,250.13
-0.62,2,-0.35,-55.56,133.53,250.13
-1.46,2,-0.25,-92.51,114.14,250.13
-0.22,2,-0.5,-93.53,154.34,250.13
-1.29,1.47,-0.75,-75.09,183.31,250.13
-2,0.35,0.05,-53.18,57.13,214.66
-2,0.27,-0.01,-36.61,-42.03,110.46
-0.92,-0.07,-0.18,-61.92,-22.96,20.27
-1.12,0.15,0.42,-69.21,25.68,-21.62
-2,-0.39,-0.1,-39.64,-43.08,-40.65
-1.29,-0.41,-0.39,-59.28,-122.69,-92.99
-0.9,-0.28,-0.1,-44.02,-144.69,-163.15
-0.6,0.52,-0.81,-39.94,-116.15,-223.28
-0.47,1.66,-1.39,-8.08,-118.76,-250.14
-2,2,0.05,47.5,-78.73,-250.14
-0.24,2,-0.67,31.27,-61.01,-250.14
-0.63,2,-0.56,58.53,-79.24,-250.14
-0.11,2,-0.07,68.41,-209.44,-250.14
1.35,1.86,-0.11,64.3,-185.09,-250.14
2,0.59,-0.45,31.42,-116.76,-119.34
2,-0.32,-0.83,-28.56,-34.24,51.53
2,-0.54,0.04,-66.37,173.37,37.83
2,-0.32,-0.1,-25.78,250.13,61.63
-0.66,0.27,-0.36,25.56,211.66,119.24
-1.44,0.67,-0.51,28.57,145.59,139.22
-1.78,0.67,-0.77,71.16,24.18,69.63
-1.9,1.5,-1.68,-1.85,105.55,-86.66
1.08,-1.54,2,-78.56,-90.44,-26.38
0.7,2,-2,-90.28,4,-45.95
2,0.89,-2,-32.08,77.15,184.26
-1.16,2,-0.69,7.15,53.44,250.13
1.56,2,-0.42,13.79,-7.03,250.13
-1.21,2,-0.01,-79.08,135.08,250.13
-0.9,2,-0.11,-99.96,70.11,250.13
0.17,1.83,-0.53,-102.36,186.83,250.13
-1.86,1.33,-0.72,-79.87,239.33,250.13
-2,0.07,0.07,-53.71,54.11,158.63
-1.74,0.16,-0.19,-70.24,1.34,65.86
-0.95,0.02,-0.04,-59.48,16.85,11.79
-2,-0.36,-0.12,-41.8,-60.55,-24.6
-2,-0.51,-0.73,-25.93,-224.12,-68.86
-0.25,-0.11,-0.02,-41.78,-235.34,-151.85
-0.04,0.58,0,-49.73,-108.53,-221.84
-0.13,0.91,-0.08,-15.66,7.74,-250.14
-1.02,2,-0.24,-13.53,19.93,-250.14
-1.09,2,-0.65,6.14,-31.71,-250.14
0,2,-0.92,60.44,-4.92,-250.14
-0.27,2,-0.5,71.76,-80.37,-250.14
-0.05,1.86,0.21,96.1,-189.4,-250.14
1.54,0.98,-0.33,52.42,-174.9,-179.75
2,-0.31,-0.57,0.58,-130.58,-10.54
2,-0.87,-0.15,-21.89,-15.73,72.8
2,-0.56,-0.24,-74.76,250.13,16.88
-0.04,0.34,-0.47,26.57,250.13,112.73
-1.73,0.36,-0.34,45.55,113.53,166.04
-1.75,1.11,0.04,13.27,-65.07,119.78
-1.23,1.45,-0.94,60.27,-27.64,-1.62
-1.18,-0.04,-0.22,-123.61,248.18,-85.41
-2,-1.04,1.58,250.13,234.29,3.05
2,0.3,-0.55,39.69,180.95,-66.43
2,1.79,-1.65,-20.53,94.25,250.13
0.05,2,-0.3,14.45,-15.89,250.13
0.34,2,-0.23,-36.05,69.52,250.13
-0.99,2,-0.05,-76.87,101.27,250.13
-0.25,2,-0.38,-81.39,140.24,250.13
-1.61,1.3,-0.48,-55.52,179.15,250.13
-2,0.46,0.23,-43.28,79.63,175.91
-2,0.1,0.02,-49.12,-11.25,79.58
-0.4,0.11,-0.03,-55.04,9.41,18.75
-1.47,0.08,0.38,-59.9,77.77,-8.97
-2,-0.44,-0.37,-45.37,-53.05,-42.01
-1.2,-0.38,-0.36,-49.65,-171.92,-89.68
-0.76,-0.11,-0.11,-37.37,-169.58,-159.47
-0.23,0.63,-0.31,-34.13,-75.49,-230.37
-0.51,1.66,-1.87,-15.79,-48.84,-250.14
-2,2,0.7,26.04,-56.31,-250.14
-0.28,2,-0.5,41.72,-42.6,-250.14
0.94,2,-1.03,55.81,-61.02,-250.14
0.19,2,-0.32,48.75,-107.27,-250.14
1,1.42,-0.07,74.94,-182.38,-250.14
2,0.48,-0.65,42.57,-102.34,-100.99
2,-1.39,-0.2,-36.03,-62.22,55.75
2,-0.32,-0.19,-67.67,239.93,9.89
0.76,0.03,-0.28,13.89,221.81,70.34
-1.74,0.25,-0.39,63.15,120.05,139.52
-1.29,1.06,0.2,19.31,-48.04,144.17
-1.21,0.84,-0.78,52.5,-68.77,62.22
-0.58,0.92,-1.11,-31.55,204.66,-82.4
2,-0.93,2,75.44,33.51,56.85
1.61,2,2,-218.03,-93.9,-163.21
2,0.42,-1.23,29.75,79.49,250.13
-0.48,2,-0.51,5.73,-15.87,250.13
0.77,2,-0.45,-25.1,78.67,250.13
-0.98,2,0.14,-80.7,106.04,250.13
-0.47,2,-0.02,-101,134.47,250.13
-0.43,1.43,-0.53,-88.71,250.13,250.13
-2,0.58,-0.47,-73.31,247.48,187.82
-2,0.17,-0.69,-75.57,100.07,75.24
-1.91,-0.17,0.01,-72.5,-13.6,17.47
-2,-0.16,-0.2,-27.22,-153.75,-5.37
-1.89,-0.41,-0.38,-12.76,-250.14,-50.79
-0.07,0.13,-0.17,-51.89,-200.64,-113.44
0.06,0.05,0.22,-71.49,-71.81,-183.44
-0.28,0.39,-0.44,-61.26,9.34,-228.86
-0.75,1.65,-0.8,-4.17,-56.31,-250.14
-2,2,-0.01,31.25,-26.53,-250.14
-0.34,2,-0.64,43.85,-30.4,-250.14
-0.47,2,-0.79,70.72,-95.22,-250.14
-0.41,2,-0.1,87.89,-250.14,-250.14
1.06,1.68,-0.25,82.81,-228.23,-250.14
2,0.37,-0.44,5.47,-132.89,-103.08
2,-0.84,-0.23,-37.22,-57.27,43.45
2,-0.09,-0.56,-49.52,234.18,39.38
1.87,-0.57,-0.17,-15.13,250.13,37.31
-1.16,0.5,-0.37,41.62,191.28,145.76
-1.29,0.86,-0.96,48.99,117,155.18
-1.71,0.75,-0.98,64.86,-42.24,84.2
-1.52,1.57,-1.73,-77.54,71.89,-52.73
-2,0,2,-104.5,-169.74,3.63
2,0.23,2,137.42,-250.14,-250.14
2,-0.02,-0.22,3.32,210.4,250.13
-1.48,2,-0.64,20.58,-37.11,250.13
1.14,2,-0.43,-1.17,28.82,250.13
-0.52,2,-0.17,-66.82,121,250.13
-1.29,2,-0.29,-87.27,68.98,250.13
-0.39,1.68,-0.27,-72.4,109.2,250.13
-1.96,1.03,-0.27,-54.56,171.97,250.13
-2,0.11,0.19,-56.56,47.02,131.2
-1.17,-0.09,-0.14,-68.2,32.16,46.3
-0.64,0.09,0.23,-67.46,72.21,-3.52
-2,-0.17,-0.22,-46.15,-29,-29.08
-1.69,-0.35,-0.4,-31.46,-188.39,-52.69
-0.42,-0.3,0.06,-39.89,-193.27,-127.53
-0.17,0.38,-0.07,-57.82,-95.6,-189.08
-0.16,0.66,0.06,-16.76,-7.07,-250.14
-1.25,2,-0.11,-9.17,3.21,-250.14
-0.86,2,-0.76,-0.44,-44.42,-250.14
-0.39,2,-0.87,51.05,-26.73,-250.14
-0.15,2,-0.56,68.05,-62.51,-250.14
0.28,1.91,0.07,86.4,-160.15,-250.14
1.23,1.36,-0.36,52.91,-182.92,-184.47
2,-0.29,-0.44,8.35,-140.22,-52.52
2,-1.39,0.11,-69.17,0.9,52.68
2,-0.66,-0.03,-64.39,250.13,-6.11
0.29,0.08,-0.58,39.47,241.23,69.71
-1.32,0.24,-0.31,58.98,125.34,149.61
-1.1,0.99,0.02,13.2,-25.86,131.18
-1.39,1.02,-0.91,53.8,-51.34,44.39
-1.1,0.9,-1.43,-61.89,164.07,-87.61
0.23,0.77,2,19.95,-110.68,17.79
2,0.61,2,141.6,-131.64,-200.58
2,1.27,-1.12,11.34,120.64,250.13
-0.58,2,-0.27,32.5,-43.94,250.13
0.41,2,0.11,-11.74,52.32,250.13
-0.89,2,0.26,-63.94,83.21,250.13
-0.18,2,-0.05,-81.67,96.99,250.13
-0.24,1.62,-0.83,-73.74,209.71,250.13
-2,0.54,-0.44,-50.44,214.73,228.39
-2,-0.1,-0.14,-39.61,1.88,123.92
-1.54,-0.17,-0.16,-41.29,-80.6,31.54
-1.1,0.27,0.37,-44.73,-18.66,-18.23
-2,-0.22,0.02,-41.96,-65.33,-52.15
-0.93,-0.17,-0.13,-69.61,-116.4,-110.07
-0.43,-0.07,0.06,-63.95,-93.51,-180.56
-0.44,0.43,-0.08,-25.46,-57.99,-233.56
-0.48,2,-0.21,-10.52,-64.84,-250.14
-1.93,2,-0.22,17.43,-33.34,-250.14
-0.7,2,-0.65,36.4,13.47,-250.14
0.24,2,-0.69,65.21,-50.98,-250.14
0.03,2,-0.16,71.61,-108.88,-250.14
0.87,1.44,-0.04,80.59,-190.55,-218.84
2,0.36,-0.39,23.4,-113.53,-92.74
2,-0.93,-0.13,-33.46,-64.73,35.2
2,-0.22,-0.28,-55.44,180.64,30.92
1.38,-0.1,-0.31,-0.93,242.83,57.94
-1.08,0.1,-0.35,54.79,170.54,130.19
-1.27,0.7,-0.33,24.17,71.51,144.45
-1.63,0.81,-0.33,45.8,-37.29,87.36
-1.31,1.27,-1.15,36,79.11,-67.78
1.83,-1.64,2,-20.4,-54.31,7.92
-2,0.21,-2,250.13,250.13,171.95
2,-1.06,-2,51.01,24.76,-6.48
1.5,1.64,-1.25,-0.55,140.79,250.13
0.43,2,-0.26,14.11,17.14,250.13
-0.6,2,0.16,-48.98,75.42,250.13
-0.19,2,0.19,-86,130.02,250.13
0.22,1.55,-0.49,-90.46,250.13,250.13
-2,1.38,-0.82,-79.91,250.13,227.03
-2,0.13,-0.42,-53.7,72.99,139.65
-1.75,0.29,-0.29,-67.09,-18.63,82.66
-1.07,-0.16,0.08,-53.4,-15.89,31.67
-1.88,-0.27,-0.04,-35.95,-38.04,0.8
-1.99,-0.43,-0.51,-29.82,-145.33,-52.12
-0.64,-0.26,-0.03,-39.32,-193.27,-113.91
-0.3,0.14,-0.2,-38.27,-132.9,-179.92
-0.28,0.52,-0.15,-13.17,-54.17,-249.73
-0.86,2,-0.61,5.95,-79.15,-250.14
-0.68,2,-0.56,-23.65,-56.52,-246.91
-0.06,2,-0.67,42,30.43,-250.14
-0.57,2,-0.6,68.31,-88.48,-250.14
-0.03,2,-0.27,105.21,-187.13,-250.14
1.07,1.43,-0.4,68.52,-202.85,-219.05
2,-0.02,-0.79,46.79,-129.6,-43.13
2,-1.13,0.06,-65.03,-44.45,83.81
2,-0.83,0.04,-83.56,250.13,33.09
0.6,0.15,-0.22,17.7,244.07,92.39
-1.52,0.28,-0.25,54.19,157.6,150.6
-1.54,1.14,-0.1,7.78,12.61,136.98
-1.38,1.16,-0.94,81.58,9.57,6.95
-1.28,0.61,-1.16,-108.42,179.34,-102.19
0.76,-0.39,2,180.27,89.69,-3.47
2,1.57,1.13,68.3,51.41,-94.08
2,1.94,-1.13,10.43,41.63,250.13
0.31,2,-0.37,27.63,-29.11,250.13
0,2,-0.33,-25.4,84.51,250.13
-1.18,2,0.1,-76.98,104.85,250.13
-0.23,2,-0.25,-92.27,144.87,250.13
-0.61,1.39,-0.68,-75.98,250.13,250.13
-2,0.56,-0.5,-53.14,142.3,206.5
-2,-0.01,-0.18,-31.89,-59.15,118.78
-1.2,0.01,0.15,-41.69,-62.29,38.28
-1.36,0.11,0.08,-40.4,-32.73,-10.57
-2,-0.41,-0.07,-34.88,-79.95,-59.16
-1.14,-0.28,-0.17,-60.08,-144.4,-129.12
-0.43,0.05,-0.03,-51.47,-134.61,-199.55
-0.13,0.79,-0.44,-39.45,-58.33,-250.14
-0.53,2,-0.72,-6.69,-47.91,-250.14
-1.38,2,-0.37,-18.47,-36.6,-250.14
-0.37,2,-0.56,33.76,16.31,-250.14
-0.33,2,-0.59,63.12,-56.02,-250.14
0.02,2,-0.17,73.45,-140.69,-250.14
0.81,1.48,-0.17,69.95,-178.92,-242.66
1.97,0.25,-0.43,31.82,-132.06,-104.99
2,-0.96,-0.05,-25.29,-62.78,39.86
2,-0.32,-0.28,-76.28,146.19,43.7
1.71,-0.2,-0.43,-14.24,250.13,69.91
-1.03,0.19,-0.3,41.42,192.27,135.08
-1.3,0.84,-0.11,18.24,70.98,155.5
-2,0.82,-0.81,91.32,-33.02,55.49
-1.61,1.26,-1.74,-77.9,128.88,-100.41
1.21,1.12,2,-34.15,-164.06,53.98
2,2,2,57.48,-138.15,-132.43
2,0.74,-1.66,14.45,67.56,250.13
-0.2,2,-0.31,22.95,-25.26,250.13
0.48,2,0.01,-18,73.73,250.13
-1.18,2,0.31,-75.27,128.83,250.13
-0.26,2,-0.17,-94.37,154.83,250.13
-0.76,1.12,-0.58,-91.47,197.25,250.13
-2,0.67,-0.37,-59.11,112.37,228.68
-2,0.37,0.16,-37.21,-8.5,143.4
-1.43,0.2,-0.09,-46.18,-6.29,74.44
-0.71,0.2,0.33,-54.66,21.77,23.12
-2,-0.45,0.06,-45.82,5.65,-2.11
-1.95,-0.59,-0.58,-45.68,-125.17,-77.88
-0.72,-0.07,-0.33,-42.52,-162.8,-163.11
0.18,1.22,-0.89,-18.18,-162.98,-250.14
-0.74,2,-0.84,-0.44,-21.88,-250.14
-0.54,2,-0.1,-19.02,-4.93,-250.14
-0.35,2,-0.16,21.31,65.77,-250.14
-0.85,2,-0.4,93.46,-16.21,-250.14
0.04,2,-0.21,80.78,-166.57,-250.14
0.9,1.9,-0.15,50.8,-171.11,-250.14
1.93,0.35,-0.62,3.22,-211.27,-144.41
2,-0.87,-0.61,-18.73,-67.47,33.91
2,-1.02,-0.55,-75.28,121.01,26.5
2,0.01,-0.34,-31.47,250.13,51.65
-1.79,0.21,0.11,32.97,189.95,142.98
-2,0.66,-0.25,-0.08,-34.36,77.57
-2,1.19,-1.37,119.47,-100.55,-33.04
0.38,0.06,0.18,-130.82,231.93,-39.39
-2,2,-2,250.13,215.55,17.37
2,-2,-1.38,48.33,148.43,-81.6
0.8,2,-1.36,-44.93,63.57,250.13
0.6,2,-0.63,21.54,-45.61,250.13
-0.67,2,0.02,-24.42,27.2,250.13
-0.3,2,0.45,-70.94,94.5,250.13
-2,-0.31,-0.79,-7.28,24.2,75.87
-1.58,0.08,-0.73,-48.15,-250.14,-19
-0.13,0.08,1,-34.43,-101.22,-37.92
-2,-0.42,-0.51,-26.71,-91.69,-90.86
-0.43,0.13,-0.3,-81.4,-103.36,-161.16
0.14,0.39,0.05,-48.02,7.9,-244.69
-0.48,0.56,-0.43,15.12,58.55,-250.14
-1.2,2,-0.52,38.3,-33.47,-250.14
-1.8,2,-0.56,64.28,-137.98,-250.14
0.4,2,-0.88,51.16,-132.5,-250.14
0.11,2,-0.54,39.11,-42.94,-250.14
-0.15,2,-0.22,63.31,-115.68,-250.14
0.6,1.39,-0.22,43.8,-196.85,-186.71
1.74,0.69,-0.54,1.05,-230.37,-76.16
2,-0.61,-0.29,-15.74,-112.1,-22.91
2,-0.22,-0.39,-37.24,250.13,79.15
2,-0.29,-0.3,-28.91,250.13,50.73
-1.15,0.38,-0.12,4.6,216.69,135.22
-2,0.34,-0.5,79.27,128.74,101.65
-2,0.78,-1.54,87.84,-54.04,32.15
-1.21,1.63,-0.57,-226.71,39.89,13.26
2,0.48,-2,145.19,0.9,-89.35
2,1.74,-2,-6.42,92.6,229.97
-0.62,2,1.62,-23.24,44.69,250.13
1.25,2,-0.91,-35.97,97.81,250.13
-0.29,2,-0.72,-79.23,133.53,250.13
-1.72,2,-0.98,-84.52,21.72,250.13
-1.06,2,-0.58,-62.29,-50.18,250.13
-0.09,1.34,0.17,-46.08,55.7,250.13
-2,0.83,0.51,-32.79,157.55,187.93
-2,-0.03,-0.28,-28.85,49.37,69.15
-0.72,0.32,-0.14,-72.42,9.28,4.14
-0.82,0.05,0.55,-75.88,131.78,-30.64
-2,-0.61,-0.53,-28.48,-28.32,-71.16
-1.29,-0.25,-0.56,-40.27,-187.6,-89.97
-0.26,-0.11,-0.24,-33.19,-170.63,-171.07
-0.46,0.23,-0.51,-19.73,-104.13,-219.21
-0.53,1.17,-1.78,25.62,-72.76,-250.14
-1.51,2,0.17,37.34,-68.32,-250.14
-1.2,2,-0.52,15.95,17.72,-250.14
0.2,2,-0.6,53.82,3.39,-250.14
-0.67,2,-0.09,88.23,-118.42,-250.14
0.47,2,-0.29,95.45,-219.06,-250.14
1.48,1.54,-0.46,43.05,-176.46,-156.11
2,0.26,-0.59,-55.92,-165.24,-12.69
2,-1.52,0.12,-42.66,3.41,126.5
2,-0.61,0.1,-81.09,250.13,46.69
0.74,0.1,-0.78,9.72,250.13,66.5
-1.32,0.74,-0.06,10.83,213.29,147.85
-2,0.89,-0.41,17.92,91.57,75.81
-2,0.7,-2,140.36,-28.06,-33.05
-1.55,1.33,-1.05,-250.14,-44.35,-28.82
2,-1.1,2,107.2,-250.14,53.5
2,2,-2,-242.02,250.13,48.56
1.57,2,1.56,-78.44,178.58,250.13
-1.23,2,-0.46,-9.83,-18.56,250.13
1.46,2,-0.45,-39.21,65.85,250.13
-1.4,2,-0.12,-95.18,109.64,250.13
-0.92,2,-0.35,-90.46,196.35,250.13
-1.88,0.86,-0.48,-77.86,250.13,246.85
-2,0.06,-0.49,-46.4,101.28,105.12
-1.97,0.3,-0.85,-72.85,12.81,39.2
-0.74,0.02,0.55,-83.98,-11.1,24.08
-1.18,-0.13,0.12,-47.27,-44.23,-7.86
-1.56,-0.37,-0.24,-20.91,-127.02,-16.15
-0.56,-0.23,-0.4,-39.56,-156.74,-49.96
-0.59,-0.37,-0.15,-38.82,-117.74,-129.18
-0.59,0.23,-0.4,-30.44,-70.32,-179.47
-1.1,0.95,-2,16.09,-62.54,-246.9
-1.62,2,-0.28,45.93,-103.54,-250.14
-0.97,2,-0.79,33.18,-57.31,-250.14
0.34,2,-0.42,69.47,2.76,-250.14
0.1,2,-0.34,75.49,-130.54,-250.14
0.76,2,-0.55,81.09,-179.64,-250.14
1.75,1.44,-0.66,-3.47,-110.21,-169.52
2,-0.56,-0.41,-7.79,-142.49,1.19
2,-1.11,0.02,-43.5,102.56,79.51
2,-0.56,-0.69,41.81,250.13,-28.17
-0.1,0.4,-0.66,21.41,225.09,109.71
-1.44,0.8,0.56,-26.78,82.22,139.55
-2,0.45,0.61,5.1,-143.54,81.6
-1.88,0.59,-1.74,182.21,-109.06,-5.6
-0.49,1.42,-1.89,-219.76,211.18,-79.5
2,0.79,2,-51.58,-164.63,-40.61
2,2,2,-144.6,250.13,-40.63
2,2,-0.25,-5.31,68.53,250.13
-0.55,2,0.68,33.61,-32.66,250.13
0.23,2,-0.24,-65.74,169.62,250.13
-1.42,2,-0.43,-107.16,198.02,250.13
-1.35,1.71,-0.8,-99.69,215.4,250.13
-2,0.24,-0.59,-45.58,157.52,230.82
-2,0.22,-0.35,-14.57,69.85,132.46
-1.64,0.55,-0.18,-88.79,47.41,43.11
-0.43,-0.01,0.27,-69.3,46.96,22.98
-0.93,-0.12,0.26,-41.77,45.64,4.85
-2,-0.15,-0.32,-17.53,-106.63,0.15
-0.78,-0.17,-0.06,-40.5,-128.26,-19
-0.31,-0.75,-0.22,-41.65,-69.08,-112.44
-0.85,-0.25,-0.32,-22.94,-25.94,-201.4
-1.1,0.43,-1.16,11.78,-69.1,-250.14
-1.4,2,-1.85,64.6,-139.8,-250.14
-2,2,-0.31,44.6,-101.4,-250.14
-0.62,2,-1.04,80.92,-54.99,-250.14
-0.29,2,-0.51,30.13,-66.23,-250.14
0.36,2,0.3,80.72,-171.44,-250.14
1.41,1.51,-0.35,56.41,-169.12,-210.02
2,0.49,-0.99,-1.14,-134.4,-37.12
2,-1.19,-0.06,-8.84,-44.64,40.66
2,-0.07,0.07,-53.34,204.03,5.18
1,0.18,-0.63,16,224.78,65.69
-0.81,0.24,-0.35,7.72,125.93,160.71
-1.44,0.35,0.61,-9.23,-6.73,157.16
-2,0.5,0.2,63.4,-123.79,117.49
-1.66,1.06,-1.27,157.12,58.55,-74.62
-0.02,-0.12,1.78,-213.77,250.13,-109.31
-2,-0.94,-2,250.13,-21.95,57.81
0.89,2,-2,250.13,44.73,44.08
1.94,1.94,-1.7,-25.63,111.1,250.13
-0.28,2,-0.61,-9.97,62.75,250.13
-1.06,2,-0.25,-95.52,147.7,250.13
-1.75,2,-0.38,-118.61,184.22,250.13
-1.67,0.74,-0.41,-113.31,230.75,250.13
-2,-0.12,-0.67,-48.53,151.12,165.21
-2,0.01,-0.11,-64.51,33.79,74.03
-1.36,0.13,-0.46,-64.35,-54.63,22.04
-0.04,0.1,0.42,-57.16,-27.5,-2.54
-2,-0.32,-0.24,-20.5,-86.12,-22.34
-1.27,-0.36,-0.53,-25.78,-158.08,-45.6
-0.39,-0.41,-0.01,-32.8,-126.1,-142.55
-0.46,0.14,-0.04,-30.69,-84.37,-206.34
-0.25,0.79,0,-8.58,-1.41,-250.14
-0.7,2,-0.15,-6.26,-20.6,-250.14
-2,2,-0.49,-17.3,-20.66,-250.14
-0.68,2,-0.74,58.71,-17.5,-250.14
-0.61,2,-0.28,45.61,-67.89,-250.14
-0.13,1.93,0.05,116.8,-185.18,-250.14
0.78,1.67,-0.39,59.31,-148.69,-140.2
2,0.62,-0.61,-4.83,-152.51,-71.23
2,-0.87,-0.35,-30.23,-30.41,12.76
2,0.18,-0.83,-6.21,228.36,31.23
2,0.47,-0.17,-23.91,250.13,56.49
-0.22,0.4,-0.37,-5.13,248.68,103
-1.95,0.26,-0.14,1.6,77.26,120.22
-2,-0.01,-0.67,113.6,-46.34,67.87
-2,1.8,-2,-161.21,-15.59,-108.87
2,-1.87,2,236.76,-230.33,75.69
2,0.31,-2,63.03,142.1,140.72
2,2,-2,-59.45,67.89,126.83
-1.48,1.74,0.3,-61.83,109.13,250.13
0.1,2,-0.53,-19.35,9.92,250.13
-0.9,2,-0.01,-102.56,84.08,250.13
-0.99,2,-0.29,-129.64,148.05,250.13
-1.17,1.17,-0.43,-135.44,228.44,250.13
-2,0.38,-0.49,-69.73,145.15,209.97
-2,0.24,-0.34,-68.89,70.88,119.27
-1.59,-0.05,-0.55,-73.5,-12.18,59.44
-1.05,-0.25,0.22,-68.89,13.95,18.73
-2,-0.94,-0.11,-10.28,-161.92,-19.76
-0.92,-0.13,-0.62,-25.57,-231.11,-75.51
0.03,0.05,0.1,-41.83,-139.47,-148.7
-0.14,0.03,-0.14,-45.94,-57.93,-179.53
-0.6,0.03,-0.46,20.88,-5.82,-240.24
-1.23,2,-0.01,38.47,-97.13,-250.14
-2,2,-0.93,73.19,-112.59,-250.14
-0.32,2,-0.54,71.73,-27.75,-250.14
-1.28,2,-0.4,81.83,-123.83,-250.14
-0.03,2,-0.26,134.05,-233.9,-250.14
1.13,2,-0.7,74.7,-174.75,-189.82
2,1.01,-0.82,-40.76,-61.97,-90.2
2,-0.83,0.15,-16.24,-4.18,14.89
2,-0.02,-0.32,-78.15,250.13,41.71
1.12,0.12,-0.53,-7.98,250.13,90
-1.41,0.48,0.12,-9.46,151.44,172.69
-2,0.77,0.44,-3.35,9.88,135.82
-2,1.11,-2,169.06,-57.78,-20.24
-0.05,-0.07,2,-250.14,250.13,-160.86
-2,-1.33,-2,250.13,35.78,64.64
1.28,2,-2,184.15,-19.34,77.02
0.24,2,0.71,-23.63,60.85,250.13
0.39,2,-0.92,-11.56,29.19,250.13
-1.48,2,-0.12,-120.1,121.56,250.13
-1.65,2,-0.13,-118.82,89,250.13
-0.84,1.31,-0.4,-124.24,152.16,250.13
-2,0.29,-0.35,-49.84,81.85,244.34
-2,0.1,-0.07,-32.65,-14.26,124.2
-1.21,0.2,-0.2,-60.72,-22.2,51.65
0.01,0.03,0.48,-82.3,64.5,10.1
-1.46,-0.25,0.19,-57.56,20.06,-16.4
-1.49,-0.21,-0.36,-41.28,-65.58,-48.94
-0.95,-0.3,-0.41,-41.26,-100.89,-85.47
-1.03,-0.56,-0.39,-24.35,-136.67,-131.93
-0.78,0.02,-0.45,-15.08,-105.69,-206.15
-0.77,1.01,-2,31.82,-89.99,-250.14
-1.95,2,0.92,51.88,-44.1,-250.14
-1.69,2,-0.35,35.43,4.92,-250.14
0.06,2,-0.21,33.08,38.2,-250.14
0.07,2,0.31,64.63,-72.83,-250.14
0.52,2,0.04,73.42,-127.66,-199.61
1.46,1.15,-0.5,5.09,-95.29,-98.68
2,-0.02,-0.39,-20.22,-46.61,-61.32
2,-0.04,-0.1,23.56,178.57,57.34
2,-0.12,-0.25,-18.66,229.22,-11.22
0.54,-0.03,-0.94,23.05,162.21,107.21
-1.22,0.48,-0.22,-28.13,139.41,130.16
-2,0.43,0.22,50.81,-32.15,98.4
-2,1.51,-2,-26.97,-13.08,-49.24
2,0.53,2,-25.89,-221.73,-45.44
2,-0.04,2,-37.11,185.37,-78.4
2,1.88,0.06,-5.91,66.41,250.13
-0.91,2,0.25,-18.37,18.73,250.13
-0.38,2,-0.37,-61.47,73.27,250.13
-1.69,2,-0.05,-117.21,99.83,250.13
-1.14,2,-0.51,-141.76,129.85,250.13
-1.92,0.4,-0.43,-81.45,87.66,250.13
-1.81,0.44,-0.13,-42.75,144.08,175.34
-2,-0.11,-0.34,-79.36,131.71,83.11
-1.21,-0.14,-0.13,-76.51,-7.4,12.75
-2,-0.36,0.08,-36.19,-64.98,-22.56
-2,-0.75,-0.48,15.48,-235.71,-52.97
-0.44,-0.07,-0.29,-10.45,-203.13,-127.17
-0.05,-0.06,0.03,-17.91,-113.78,-198.42
-0.29,0.29,-0.09,-28.98,3.32,-250.14
-0.58,0.53,-0.6,50.7,47.86,-250.14
-2,2,0.77,67.35,-22.15,-250.14
-2,2,-0.7,76.81,-6.27,-250.14
-0.29,2,-1.17,108.24,-129.31,-250.14
-0.47,2,-0.07,86.79,-172.87,-250.14
0.45,1.81,-0.11,104.47,-238.4,-232.27
2,1.19,-0.73,8.05,-121.94,-104.4
2,-0.26,-0.3,-31.76,-81.75,-29.74
2,-0.39,-0.26,45.85,61.78,74.6
2,0.17,0.15,-102.16,250.13,25.4
0.38,0.2,-0.42,29.91,200.2,137.93
-1.23,0.29,-0.39,-4.23,144.89,178.82
-2,0.73,0.18,15.37,-33.53,128.08
-1.97,1.41,-2,72.6,2.78,4.11
-0.73,0.21,0.26,-235.91,169.53,-94.53
2,0.03,2,-111.77,109.27,-40.99
0.86,2,2,215.13,228.82,-197.92
2,-0.08,0.23,-41.78,111.47,250.13
-1.11,2,-0.41,33.18,-17.94,250.13
-1.07,2,-0.29,-128.18,157.54,250.13
-1.6,2,-0.01,-162.06,171.41,250.13
-2,0.92,-0.45,-145.56,220.2,250.13
-2,-0.22,-0.74,-71.58,154.11,201.17
-2,0.2,-0.36,-76.86,71.36,96.38
-1.57,-0.02,-0.26,-88.71,29.37,26.01
-0.96,-0.16,0.15,-70.02,16.2,2.12
-2,-0.78,-0.29,6.04,-160.97,-20.31
-1.39,-0.54,-0.83,16.42,-250.14,-65.29
0.11,-0.13,0.04,-12.27,-193.46,-158.06
-0.03,0.16,-0.17,-33.69,-75.5,-209.94
-0.67,0.35,-0.69,14.34,17.17,-250.14
-1.57,2,-0.08,40.44,-43.99,-250.14
-2,2,-0.96,48.02,-54.69,-250.14
-0.76,2,-0.72,86.72,-33.69,-250.14
-1.98,2,-0.37,109.62,-179.69,-250.14
-0.12,2,-0.29,144.7,-250.14,-250.14
1.37,2,-0.59,67.63,-200.69,-186.3
2,0.66,-0.56,-8.26,-129.6,-104.21
2,-0.54,-0.09,-1.08,-52.61,1.53
2,0.83,-1.04,-111.44,250.13,7.26
1.03,0,-0.04,-85.23,250.13,93.69
-1.21,-0.03,-0.32,10.15,180.76,157.64
-1.74,0.18,0.05,20.91,4.15,133.33
-2,0.79,-1.26,97.82,-122.4,71.38
-1.32,1.08,-2,-158.64,179.08,-144.28
1.01,0.29,2,-56.42,-71.66,-49.08
2,1.37,2,137.96,135.85,-36.02
1.31,1.77,1.67,-98.05,68.6,250.13
-2,2,-0.15,45.54,-67.5,250.13
0.39,2,-0.06,-48.24,62.69,250.13
-1.56,2,0.29,-131.69,142.58,250.13
-0.49,2,-0.75,-173.15,227.77,250.13
-2,0.53,-0.7,-146.15,166.49,250.13
-2,-0.16,-0.12,-25.68,35.3,186.07
-2,0.11,-0.1,-50.58,-16.05,111.11
-0.5,0.14,-0.07,-60.62,-6.31,47.07
-0.87,-0.1,0.29,-84.08,112.02,0.7
-2,-0.91,-0.17,-32.16,-45.46,-13.85
-1.41,-0.5,-0.55,-12.49,-158.27,-74.01
-0.73,-0.47,-0.34,4.77,-151.48,-142.97
-0.71,-0.07,-0.73,3.69,-104.68,-208.73
-0.86,1.4,-1.16,45.75,-141.85,-250.14
-2,2,0.95,70.01,-74.63,-250.14
-0.38,2,0.03,4.48,70.18,-250.14
-1.42,2,-0.31,53.11,75.3,-250.14
-0.88,2,-0.17,100.03,-135.73,-250.14
0.23,2,-0.35,112.56,-189.86,-250.14
2,1.39,-0.75,12.53,-79.95,-103.72
2,-0.15,-0.66,-1.95,-111.32,22.59
2,-0.52,-0.04,-81.35,159.7,43.41
2,0.19,-0.54,0.76,250.13,-0.91
0.02,0.14,-0.76,18.54,239.44,88.42
-1.24,0.3,-0.1,2.18,169.74,129.64
-1.76,0.51,0,26.69,15.3,154.48
-2,0.61,-1.07,83.55,-117.53,73.72
-1.72,0.83,-2,-80.86,40.69,-116.98
2,-0.11,2,124.48,-248.66,165.34
1.2,0.53,-2,155.93,250.13,250.13
2,2,-2,-97.55,-67.59,101.27
-0.07,1.96,-0.4,-45.21,42.79,250.13
-0.06,2,-0.58,-49.88,74.24,250.13
-1.48,2,-0.42,-142.69,152.39,250.13
-1.95,1.73,-0.45,-177.24,227.9,250.13
-2,-0.3,-0.55,-84.66,141.14,244.4
-2,-0.02,-0.41,-49,58.7,136.4
-2,0,-0.26,-71.39,-8.15,42.89
-0.63,-0.14,0.4,-44.52,-92.24,10.67
-0.81,0.06,0.33,-18.85,-99.88,-2.36
-1.05,-0.14,-0.12,-21.37,-74.02,-8.76
-0.51,-0.5,0.13,-55.15,-32.09,-84.76
-0.95,-0.59,-0.11,-50.15,-26.43,-149.44
-1.06,-0.03,-0.31,-28.02,-32.01,-220.4
-1.34,0.31,-1.01,55.04,-67.88,-250.14
-2,2,-0.07,66.02,-176.56,-250.14
-2,2,-0.76,61.89,-99.69,-250.14
-0.69,2,-0.94,78.66,-49.7,-250.14
-0.74,2,-0.63,64.57,-130.37,-250.14
0.29,2,-0.4,132.21,-210.73,-250.14
1.68,1.89,-0.77,42.46,-122.52,-170.99
2,0.25,-0.41,-8.73,-110.63,5.69
2,-1,0.25,-102.95,142.69,72.76
2,-0.05,-0.14,-38.78,250.13,-21.27
-0.21,0.13,-0.35,26.58,156.69,109.48
-0.85,0.43,-0.06,6.09,116.66,147.71
-0.95,0.63,0.17,16.34,-5.93,137.53
-1.41,0.55,-1,63.33,-2.59,75.85
-1.77,0.73,-2,-111.29,198.1,-105.64
1.4,2,2,-159.53,-250.14,10.98
2,2,-0.26,-104.24,175.85,-218.08
2,1.12,0.3,-188.15,208.64,250.13
-2,2,0.31,14.33,-23.84,250.13
-0.08,2,-0.58,-33.99,7.57,250.13
-1.5,2,0.09,-133.82,105.08,250.13
-0.88,2,-0.49,-156.6,113.5,250.13
-1.39,0.64,-0.82,-128.42,125.18,250.13
-2,-0.03,-0.11,-32.98,-6.73,230.75
-2,-0.35,-0.02,20.95,-153.25,154.17
-0.54,0.19,0.12,-20.78,-92.61,45.72
-0.08,0.13,0.69,-94.85,106.47,2.68
