aX,aY,aZ,gX,gY,gZ
0.24,0.69,-0.1,18.34,87.52,15.53
0.11,0.66,-0.2,35.37,119.81,39.7
-0.3,0.74,-0.39,56.82,108,64.47
-0.8,1.01,-0.41,45.53,57.79,71.27
-1.12,1.43,-0.52,33.85,-19.08,51.73
-1.28,1.19,-0.58,-5.66,-116.34,29.5
-1.01,1.16,-0.63,-30.16,-139.6,24.3
-0.47,1.09,-0.3,-56.18,-124.27,17.89
0.29,1.65,-0.29,-47.8,-118.83,52.13
0.29,0.86,0.5,-14.45,-40.37,41.63
0.37,0.99,-0.12,-3.27,6.66,43.84
0.76,0.88,-0.19,-24.11,29.15,60.17
0.33,0.98,-0.14,-23.6,30.3,79.23
-0.26,0.95,-0.26,-22.73,-11.29,71.33
-0.05,0.87,-0.32,-21.34,-58.85,63.52
0.37,0.92,-0.2,-20.5,-48.16,60.4
0.21,0.9,-0.19,-16.15,-9.31,55.85
0.15,0.96,-0.2,-14.36,19.79,52.91
0.15,0.97,-0.17,-17.02,36.84,48.33
0.04,0.93,-0.19,-18.47,40,50.67
0.05,0.92,-0.2,-14.46,33.66,49.08
-0.04,0.94,-0.24,-11.35,22.13,45.73
-0.07,0.95,-0.21,-10.76,0.18,43.63
0.03,0.95,-0.18,-10.56,-12.44,43.91
0.12,0.93,-0.14,-8.68,-9.17,44.08
0.19,0.97,-0.12,-5.37,4.29,43.43
0.22,0.98,-0.13,-4.18,25.22,40.2
0.11,0.97,-0.16,-3.21,38.81,35.98
0.05,1.02,-0.19,-3.5,43.54,35.65
0.03,1.05,-0.19,-5.44,33.92,37.06
0.13,0.97,-0.35,-0.43,22.03,40.5
0.21,1.12,-0.26,1.65,68.39,34.47
0,1.09,-0.29,-5.04,90.53,32.39
-0.17,1.07,-0.3,-16.44,82.35,25.02
-0.19,1.04,-0.26,-22.02,61.57,17.48
-0.18,1.21,-0.3,-11.9,66.4,7.48
-0.11,1.16,-0.14,-23.16,93.53,-9.92
-0.11,1,-0.02,-25.21,125.6,-44.53
-0.22,1.09,0.1,-37.24,167.84,-92.91
-0.2,0.82,0.05,-32.5,162.31,-122.76
-0.31,0.61,-0.19,-6.47,123.01,-142.67
-0.2,0.96,-0.17,20.72,60.4,-153.04
0.03,1.41,-0.08,40.21,49.77,-150.56
0.17,1.27,-0.16,41.16,46.46,-135.34
0.05,1.13,-0.06,55.02,31,-128.98
0.01,1.25,0.01,61.05,-2.63,-122.08
-0.06,1.11,-0.03,63.26,-42.34,-111.49
-0.07,1.01,-0.07,63.47,-69.02,-96.21
0.02,1.02,-0.05,54.64,-94.22,-79.83
0.18,0.9,-0.01,49.01,-99.24,-65.51
0.33,0.86,0.03,47.81,-69.27,-60.96
0.43,0.91,-0.04,32.14,-26.9,-55.73
0.41,0.81,0,18.69,19.99,-37.73
0.37,0.74,0.02,12.73,55.89,-16.71
0.19,0.74,-0.03,11.78,80.94,-0.28
0.03,0.77,0,10.66,86.63,22.2
-0.15,0.73,-0.06,28.81,80.02,46.82
-0.45,0.85,-0.26,42.15,54.71,57.46
-0.73,1.06,-0.44,36.98,59.72,49.92
-0.84,1.27,-0.93,45.49,39.65,29.94
-1.18,1.28,-0.52,-27.36,-35.43,15.26
-1.3,1.28,-0.24,-37.63,-86.4,10.36
-0.83,1.69,-0.79,-31.99,-137.38,29.54
0.52,0.84,0.25,-53.01,-161.77,33.35
1.28,0.55,0.46,0.44,-48.51,35.35
0.93,0.89,-0.38,-12.12,74.56,63.49
0.11,1.16,-0.16,-26.11,61.27,94.51
-0.21,0.97,-0.15,-23.98,7.78,76.53
-0.2,0.84,-0.3,-18.18,-34.2,62.57
0.22,0.94,-0.26,-17.47,-34.94,56.84
0.24,0.91,-0.22,-14.44,-8.12,51.34
0.24,0.94,-0.24,-11.08,31.66,48.19
0.03,0.96,-0.24,-12.37,46.96,43.83
-0.13,0.94,-0.18,-16.15,26.34,42.82
-0.01,0.91,-0.2,-16.4,5.17,48.01
0.13,0.93,-0.21,-12.4,9.85,49.06
0.05,0.96,-0.19,-11.71,23.35,46.77
0.02,0.96,-0.16,-12.89,24.26,46.84
0,0.93,-0.15,-11.43,18.92,47.06
-0.03,0.92,-0.15,-8.4,17.76,43.25
0.02,0.95,-0.17,-7.44,21.91,41.56
0.02,0.93,-0.14,-6.85,23.69,40
0.05,0.95,-0.16,-2.33,22.93,38.89
0.14,1.03,-0.19,-1.11,30.97,40.51
0.16,1.11,-0.3,-1.85,47.42,42.6
0.01,1.17,-0.27,-8.04,65.32,41.95
0.02,1.05,-0.4,-9.51,76.64,36.34
-0.17,1.06,-0.35,-19.16,88.28,25.42
-0.22,1.32,-0.27,-15.27,77.79,13.57
-0.12,1.15,-0.13,-24.46,90.44,-2.02
-0.19,1.12,-0.08,-24.52,106.77,-34.47
-0.26,1.15,0.09,-33.65,132.34,-77.83
-0.13,0.88,0.12,-37.68,153.26,-114.68
-0.22,0.6,-0.18,-12.18,138.5,-146.63
-0.22,0.77,-0.27,14.88,80.22,-159.94
-0.11,1.31,-0.13,39.18,60.44,-157.83
0.11,1.38,-0.18,41.93,58.15,-139.31
0.1,1.14,-0.14,55.49,35.89,-132.15
-0.03,1.24,-0.06,59.31,8.57,-123.34
-0.02,1.08,-0.06,63.67,-39.16,-115.14
-0.08,0.99,-0.09,64.92,-64.78,-100.21
-0.04,1.02,-0.07,60.04,-89.66,-82.36
0.05,0.98,-0.08,53.01,-104.39,-62.87
0.23,0.9,-0.02,48.55,-94.23,-55.49
0.4,0.92,-0.08,37.53,-54.6,-55.22
0.44,0.82,0.01,23.42,-9.03,-41.74
0.39,0.77,0.04,15.08,33.06,-17.68
0.22,0.73,0,12.79,72.25,-3.13
0.03,0.73,0.02,14.24,91.24,17.31
-0.16,0.71,-0.02,25.29,83.52,37.37
-0.5,0.72,-0.28,45.43,63.31,49.71
-0.83,1,-0.45,45.99,46.44,45.22
-0.89,1.37,-0.89,41.44,6.79,32.38
-1.08,1.18,-0.63,-20.09,-61.42,14.83
-1.21,1.03,-0.46,-40.61,-87.13,12.76
-0.78,1.39,-0.25,-42.42,-110.52,25.68
0.33,1.16,0.02,-74.37,-140.76,40.88
0.46,0.68,0.23,9.38,-53.85,53.41
0.59,1.02,-0.19,7.95,-11.6,55.44
0.68,1.05,-0.1,-18.89,14.38,76.66
0.25,0.96,-0.12,-19.27,0.86,87.95
-0.16,0.91,-0.3,-14.77,-20.05,74.08
0.14,0.89,-0.31,-14.36,-34.69,69.81
0.26,0.92,-0.15,-16.03,-18.39,67.07
0.13,0.9,-0.15,-11.85,7.85,61.49
0.19,0.94,-0.2,-10.88,35.08,55.44
0.02,0.97,-0.2,-13.07,50.12,51.51
-0.06,0.95,-0.2,-14.98,35.17,54.56
-0.01,0.91,-0.24,-11.65,22.91,53.47
0.02,0.97,-0.22,-10.11,23.09,50.11
0.04,0.95,-0.19,-9.46,18.66,48.84
0.12,0.96,-0.16,-7.05,16.14,48.89
0.1,1.01,-0.22,-5.69,17.26,50.08
0.2,1.02,-0.15,-2.95,26.34,45.69
0.2,1.06,-0.19,-2.4,38.82,46.18
0.12,1.06,-0.1,-6.6,54.21,48.92
0.17,0.97,-0.23,-0.64,57.55,48.4
0,0.99,-0.21,-3.3,74.37,44.76
-0.11,1.01,-0.29,-6.49,65.04,42.68
-0.07,1.06,-0.29,-12.37,52.68,39.61
-0.06,1,-0.31,-16.4,54.18,31.83
0.03,1.01,-0.27,-19.02,64.42,24.49
-0.07,1.37,-0.3,-6.5,69.63,16.44
-0.01,1.14,-0.17,-22.35,98.75,2.06
-0.11,0.99,-0.15,-21.79,123.28,-36.92
-0.42,1.07,-0.04,-29.53,130.38,-75.24
-0.32,0.92,0.13,-36.2,128.6,-106.48
-0.25,0.67,-0.15,-10.87,99.61,-134.87
-0.34,0.89,-0.17,10.78,37.48,-151.58
0,1.27,-0.08,35.82,14.32,-156.81
0.27,1.3,-0.09,36.43,26.42,-145.74
0.22,1.22,-0.11,49.69,29.92,-143.32
0.07,1.35,-0.07,55.11,29.54,-134.95
0.01,1.15,-0.08,57.01,-4.89,-125.8
-0.06,1.04,-0.04,59.8,-21.59,-113.87
0,1.04,0,57.47,-58.05,-96.85
0.12,0.95,-0.02,58.29,-87.25,-86.27
0.24,0.97,-0.05,49.69,-73.6,-78.85
0.36,0.94,-0.02,39.95,-44.43,-66.83
0.47,0.87,-0.04,24.5,4.75,-55.82
0.44,0.72,0.03,16.74,41.77,-37.13
0.29,0.75,-0.02,10.19,78.23,-11.95
0.05,0.71,0,5.69,94.37,9.72
-0.23,0.64,-0.11,27.81,86.76,33.4
-0.59,0.77,-0.39,47.15,40.9,51.63
-0.83,1.1,-0.43,34.91,-1.11,50.98
-0.85,1.34,-0.56,16.34,-50.92,30.21
-0.97,1.04,-0.5,-16.99,-83.51,15.92
-0.89,0.99,-0.48,-35.49,-63.05,9.96
-0.43,0.89,-0.18,-38.5,-61.36,19.95
0.1,1.86,-0.3,-31.64,-85.98,67.37
0.13,0.6,0.57,-16.47,-20.86,50.31
-0.42,1.2,-0.67,26.6,-6.3,52.89
0.36,0.96,-0.05,-27.37,-60.7,59.48
0.62,0.81,0.06,-15.15,-42.07,75.56
0.02,0.94,-0.15,-8.84,-28.65,77.64
0.2,0.95,-0.3,-8.14,-33.34,63.69
0.54,0.99,-0.17,-12.12,-9.21,67.84
0.22,0.93,-0.1,-11.1,28.02,60.13
0.1,0.97,-0.19,-10.75,52.62,52.73
0.06,0.97,-0.26,-12.91,57.3,48.2
-0.06,0.92,-0.25,-12.89,45.34,49.52
-0.04,0.95,-0.24,-9.54,34.79,48.61
0,0.95,-0.22,-7.94,27.37,46.84
0.03,0.95,-0.22,-7.82,17.47,46.5
0.07,0.94,-0.22,-6.3,13.54,46.69
0.07,0.96,-0.2,-3.87,13.52,45.27
0.12,0.98,-0.18,-3.91,16.74,43.15
0.2,1,-0.18,-3.05,26.07,41.82
0.17,1,-0.15,-2.06,42.46,41.56
0.13,1.02,-0.17,-1.45,53.98,39.63
0.12,0.98,-0.18,-4.86,57.44,37.26
0.11,0.94,-0.34,-1.05,68.05,33.75
-0.03,1,-0.3,-3.15,79.6,30.98
0.04,1.09,-0.27,-8.06,79.98,29.63
0.01,1.06,-0.23,-14.51,87.81,24.37
-0.07,1.01,-0.17,-16.79,88.2,17.92
-0.01,1.04,-0.16,-18.06,88.43,14.59
-0.03,1.15,-0.25,-12.76,95.58,8.69
-0.04,1.19,-0.09,-24.31,129.24,-12.76
-0.17,0.86,-0.09,-25.33,151.54,-39.68
-0.33,1.08,-0.04,-25.45,166.15,-79.67
-0.45,0.85,0.02,-28.16,153.67,-104.01
-0.38,0.64,-0.12,-2.92,102.81,-128.42
-0.27,0.9,-0.15,20.34,37.71,-141.49
0,1.31,-0.09,44.23,12.37,-147.09
0.12,1.38,-0.04,47.75,26.08,-134.66
0.33,1.19,-0.03,52.3,29.4,-129.04
0.13,1.24,0.11,64.98,23.6,-127.44
0.06,1.27,0.11,68.28,24.23,-108.62
0.91,0.95,-0.93,69.69,75.12,-94.4
-0.85,1.22,0.62,58.6,-55.37,-93.47
0.53,0.85,-0.31,52.03,-30.92,-87.79
0.05,0.9,0.04,51.98,-21.31,-74.63
-0.06,1.12,0.11,35.18,-28.07,-66.85
-0.1,0.94,0.16,30.11,-29.66,-52.28
0.29,0.84,-0.01,15.73,15.31,-49.43
0.17,0.78,-0.07,9.26,52.56,-27.68
-0.08,0.73,0,6.68,63.11,-20.56
-0.01,0.86,-0.1,-4.86,71.21,-4.05
-0.29,0.72,-0.01,-0.11,94.88,11.79
-2,0.6,1.77,9.18,-79.24,65.76
-0.3,0.9,-0.47,0.31,26.46,32.89
-0.77,1.23,-0.28,-2.98,-17.92,27.91
-0.76,1.08,-0.48,-7.08,-26.78,23.21
-0.76,1.14,-0.61,-18.75,-12.88,14.94
-0.65,1.38,-0.32,-40.52,7.71,15.5
-0.16,1.68,-0.76,-42.44,-0.01,14.51
0.44,0.43,0.37,-20.74,-9.8,45.52
0.15,0.65,0.03,1.73,15.05,50.53
0.25,1.34,0.04,-21.24,51.5,81.7
0.26,0.99,-0.05,-30.44,-13.36,83.32
-0.04,0.87,-0.14,-16.47,-20.57,75.91
0.15,0.9,-0.32,-10.38,0.76,64.37
0.46,1,-0.27,-13.37,33.22,60.09
0.15,0.96,-0.26,-16.39,53.17,54.13
-0.09,0.93,-0.25,-17.6,51.14,55.7
-0.07,0.9,-0.24,-14.92,33.94,52.94
0.07,0.93,-0.25,-11.37,34.6,49.56
0.03,0.94,-0.28,-11.15,44.89,43.63
-0.03,0.95,-0.28,-8.57,38.86,39.72
0.06,0.95,-0.25,-6.44,27.44,38.45
0.1,0.96,-0.24,-5.08,31.12,37.48
0.13,0.99,-0.2,-2.84,39.47,35.8
0.13,0.98,-0.16,-0.46,49.21,33.57
0.17,0.95,-0.24,3.41,55.31,32.84
0.09,0.97,-0.17,2.31,79.47,30.27
-0.02,0.98,-0.19,-1.58,75.91,32.01
-0.03,1,-0.22,-2.44,56.95,34.31
-0.07,0.97,-0.27,-3.69,39.12,36.22
-0.05,0.95,-0.27,-4.05,31.1,32.78
0.08,1.02,-0.25,-7.22,43.27,24.65
0.13,1.06,-0.19,-13.05,62.76,17.85
0.15,1.11,-0.14,-16.59,80.69,14.6
0.08,1.15,-0.18,-20.83,94.31,14.37
-0.01,1.1,-0.2,-24.98,101.3,14.44
-0.14,1.3,-0.26,-21.73,104.65,-1.9
-0.23,0.94,-0.12,-35.38,132.41,-28.7
-0.25,0.85,-0.02,-35.41,150.11,-72.08
-0.45,0.84,-0.04,-31.3,128.58,-113.71
-0.48,0.72,-0.13,-15.77,68.44,-130.01
-0.21,1.03,-0.27,9.27,3.47,-137.64
-0.01,1.39,-0.15,21.6,-22.36,-141.15
0.24,1.25,-0.01,21.59,-15.81,-136.12
0.33,1.09,0.03,34.45,1.15,-134.11
0.29,1.21,0.02,42.34,22.44,-131.7
0.1,1.18,-0.01,47.66,39.7,-123.11
-0.05,1.08,-0.02,51.75,28.05,-103.82
-0.09,1.03,-0.02,56.42,-12.16,-96.4
0.03,0.97,-0.11,52.76,-53.52,-87.81
0.11,0.93,-0.08,48.96,-59.01,-80.45
0.22,0.96,-0.09,42.81,-49.41,-62.66
0.38,0.92,-0.13,29.64,-15.16,-50.4
0.33,0.84,-0.02,19.95,18.93,-29.82
0.23,0.8,0.02,14.12,42.67,-11.76
0.06,0.74,0,10.63,54.31,10.75
-0.14,0.68,-0.05,23.89,46.32,29.46
-0.34,0.75,-0.21,35.15,28.05,45.25
-0.29,0.82,-0.4,31.69,37.91,46.55
-0.57,1.01,-0.37,32.5,43.63,38.66
-0.91,1.1,-0.45,12.32,1.65,21.52
-1.06,0.96,-0.45,-2.39,-47.77,8.68
-0.83,1.01,-0.46,-19.35,-52.31,14.69
-0.37,1.38,-0.12,-23.94,-63.28,32.18
0.11,1.2,-0.07,-56.46,-64.27,62.26
-0.54,1.09,-0.38,-0.56,-87.21,47.32
0.49,0.9,0,-13.28,-91.71,51.17
1.05,0.76,0.07,-13.56,-29.31,65.61
0.28,1.06,-0.12,-12.57,9.62,85.95
-0.09,0.96,-0.28,-13.1,-4.69,71.37
0.24,0.91,-0.27,-14.14,-20.86,64.06
0.14,0.92,-0.17,-13.89,-7.56,62.34
0.09,0.92,-0.21,-10.09,4.69,58.7
0.22,0.96,-0.16,-10.89,27.93,53.66
0.03,0.94,-0.15,-10.77,43.73,48.63
-0.09,0.92,-0.19,-9.01,31.8,47.02
-0.04,0.92,-0.22,-5.29,21.12,44.15
-0.03,0.95,-0.22,-3.69,19.89,40.61
-0.06,0.93,-0.19,-4.2,16.24,37.08
-0.03,0.92,-0.2,-0.67,3.47,34.96
0.14,0.95,-0.17,1.62,0.05,37.33
0.22,0.99,-0.15,1.81,17.24,37.75
0.2,1.01,-0.15,1.15,30.99,36.41
0.14,1.03,-0.16,0.24,35.2,37.24
0.15,1.1,-0.15,-1.38,43.09,38.4
0.21,0.97,-0.32,5.5,43.16,40.63
0.05,1.08,-0.21,1.47,77.63,39.35
-0.05,1.02,-0.31,-0.09,83.68,37.35
-0.17,1.03,-0.3,-6.12,88.51,29.23
-0.19,1.02,-0.32,-13.01,83.69,19.11
-0.13,1.04,-0.18,-17.36,88.97,9.86
-0.08,1.24,-0.2,-10.04,96.76,-0.05
-0.16,1.17,-0.02,-24.82,139.95,-22.83
-0.24,0.98,0.02,-26.41,158.7,-62.31
-0.35,0.98,0.04,-41.8,180.92,-109.93
-0.34,0.59,-0.08,-22.72,147.37,-137.92
-0.27,0.74,-0.19,4.11,99.27,-152.12
-0.04,1.33,-0.11,31.08,60.19,-164.4
0.05,1.57,-0.07,36.41,68.15,-148.13
0.18,1.18,-0.01,42.39,69.17,-132.89
0.11,1.21,0.06,52.85,50.31,-131.64
-0.07,1.25,0.11,59.17,19.81,-123.6
-0.08,1.11,0.03,57.13,-10.11,-105.27
-0.05,1.03,0.09,50.34,-42.65,-94.45
0.09,0.95,0.08,48.64,-59.25,-87.85
0.21,0.93,0.02,38.02,-42.77,-85.74
0.22,0.98,0.02,30.35,-20.53,-71.63
0.35,0.91,-0.05,18.13,8.34,-62.61
0.34,0.78,-0.05,9.23,47.49,-47.5
0.21,0.76,-0.07,0.43,76.76,-26.53
0.02,0.77,-0.09,-10.47,96.41,-3.48
-0.16,0.77,-0.06,-15.76,81.06,16.82
-0.3,0.74,-0.19,-4.96,62.56,35.56
-0.49,0.77,-0.34,9.6,38.52,48.5
-0.69,1.07,-0.34,3.82,27.53,47
-0.95,1.13,-0.44,-0.18,-8.96,30.6
-1.06,0.93,-0.57,-5.01,-36.56,11.94
-0.89,0.98,-0.52,-30.5,-26.72,8.3
-0.46,1.03,-0.03,-38.52,-28.33,22.15
0.04,1.32,-0.22,-41.36,-54.85,53.15
-0.44,0.92,-0.09,8.32,-31.3,48.29
0.29,0.99,-0.2,-9.05,-70.92,37.77
1.04,0.86,-0.08,-9.31,-29.61,66.01
0.48,1.05,-0.13,-10.83,8.97,83.79
-0.13,1,-0.28,-13.13,5.63,71.25
0.17,0.91,-0.31,-13.73,-15.69,63.1
0.16,0.93,-0.16,-15.8,-6,63.35
-0.02,0.9,-0.23,-10.53,8.95,60.04
0.16,0.93,-0.2,-9.93,26.92,54.26
-0.03,0.95,-0.17,-12.75,34.57,52.45
-0.03,0.94,-0.15,-12.89,24.8,54.79
0.02,0.94,-0.17,-10.18,20.66,53.08
-0.03,0.93,-0.2,-8.28,19.87,49.26
-0.04,0.96,-0.2,-6.59,17.92,45.24
0.01,0.93,-0.19,-4.61,14.47,41.67
0.01,0.98,-0.16,-2.46,18.44,38.21
0.08,1.01,-0.16,-0.71,25.56,33.99
0.12,1.09,-0.16,2.44,30.47,32.42
0.25,1.02,-0.33,7.18,36.68,38.39
0.22,1.04,-0.16,5.51,90.04,35.09
-0.07,0.96,-0.16,1.06,104.27,33.3
-0.17,1.08,-0.18,-5.69,86.3,32.94
-0.23,1.07,-0.29,-12.51,61.11,32.6
-0.19,1.01,-0.35,-16.01,48.95,29.05
-0.02,1.02,-0.27,-17.75,58.27,21.53
0.03,1.01,-0.27,-16.53,93.14,8.62
-0.14,1.36,-0.14,-17.44,139.84,-23.94
-0.3,1.07,0.07,-37.88,182.69,-62.26
-0.3,1.01,-0.05,-46.11,184.6,-110.68
-0.62,0.69,-0.13,-28.31,129.95,-137.9
-0.36,0.86,-0.12,-0.81,63.02,-153.79
0.05,1.35,-0.15,27.76,42.44,-166.14
0.12,1.45,-0.08,27.66,60.27,-150.28
0.18,1.13,0.03,39.77,55.58,-136.21
0.09,1.18,0.03,51.32,33.6,-132.59
-0.05,1.18,-0.03,55.55,8.81,-120.44
-0.07,1.05,-0.06,53.79,-13.01,-105.69
-0.05,0.96,-0.01,50.58,-35.49,-100.47
0.04,0.93,0.01,48.87,-57.76,-92.39
0.08,0.93,-0.05,50.25,-60.4,-80.08
0.1,0.92,-0.07,46.91,-46.55,-68.02
0.25,0.9,-0.07,30.43,-20.67,-51.65
0.27,0.77,0,19.76,6.82,-41.42
0.12,0.76,-0.03,14.56,33.02,-20.92
-0.01,0.76,-0.05,10.05,48.18,-3.45
-0.11,0.78,-0.07,0.83,51.65,14.97
-0.15,0.72,-0.1,4.8,51.29,37.29
-0.38,0.8,-0.18,18.3,42.27,49.86
-0.74,0.98,-0.23,12.62,14.95,54.37
-1.08,1.11,-0.4,10.24,-35.67,42.56
-1.03,1,-0.7,5.43,-58.18,28.42
-0.94,1.07,-0.56,-26.04,-67.13,23.23
-1,1.64,-0.34,-7.33,-44.37,34.44
-0.38,1.46,-0.1,-70.14,-111.57,13.05
0.16,0.59,0.32,-0.94,-117.44,37.95
1.09,0.7,-0.02,12.04,-58.47,51.51
0.67,1.15,-0.16,-13.38,33.34,81.23
0.11,1.04,-0.18,-16.92,5.85,88.59
-0.1,0.87,-0.33,-9.81,-27.66,68.62
0.15,0.92,-0.25,-11.08,-22.24,67.79
0.18,0.92,-0.18,-15.65,1.44,64.69
0.07,0.94,-0.22,-11.4,11.75,62.66
0.02,0.98,-0.2,-10.6,17.02,63.47
0.02,1,-0.13,-14.91,19.15,61.92
0.04,0.97,-0.19,-18.3,22.6,62.23
-0.08,0.92,-0.22,-14.65,18.74,58.98
-0.1,0.93,-0.16,-11.62,9.92,56.02
-0.02,0.94,-0.17,-9.55,6.61,52.05
-0.06,0.94,-0.2,-8.08,2.68,47.65
-0.02,0.95,-0.19,-6.46,-4.5,45.36
0.03,1.01,-0.22,-4.85,-7.88,44.96
0.12,1.04,-0.16,-5.54,-4.02,45.13
0.17,1.04,-0.06,-8.67,6.55,44.7
0.16,0.97,-0.18,-1.66,15.31,39.9
0.11,1.1,-0.17,-3.37,27.56,37.27
0.09,1.07,-0.2,-8.07,28.69,40.08
0,0.92,-0.21,-11.12,31.4,37.97
-0.05,0.93,-0.28,-13.34,27.79,32.5
0,0.99,-0.35,-16.34,20.85,30.99
0.02,0.96,-0.3,-20.07,20.76,28.66
0.1,0.98,-0.28,-22.19,27.21,23.56
0.01,1.14,-0.31,-15.94,33.74,15.31
-0.11,1.08,-0.21,-22.26,55.14,3.05
-0.19,0.98,-0.19,-24.03,57.23,-19.92
-0.22,1.06,-0.06,-40.23,65.75,-52
-0.3,1.01,0.08,-47.18,86.9,-87.46
-0.38,0.73,-0.11,-30.4,65.76,-114.79
-0.4,0.7,-0.26,-5.02,1.53,-131.11
-0.2,1.11,-0.28,23.82,-48.08,-136.94
0.04,1.43,-0.38,33.93,-53.22,-127.05
0.18,1.27,-0.36,37.1,-51.95,-117.53
0.18,1.17,-0.26,50,-53.85,-118.63
0.04,1.22,-0.2,59.78,-48.31,-113.42
0,1.19,-0.22,63.05,-59.82,-98.97
-0.02,1.06,-0.13,65.3,-73.24,-92.48
0.01,1,-0.06,65.38,-93.18,-80.02
0.05,0.96,-0.11,62.41,-112.35,-69.38
0.15,0.95,-0.08,54.85,-110.45,-61.59
0.27,0.94,-0.05,40.73,-76.73,-51.39
0.33,0.86,0,23.76,-40.14,-40.97
0.3,0.85,0.06,4.82,-7.09,-27.31
0.19,0.81,0.12,-9.16,29.01,-10.89
0.03,0.75,0.12,-14.4,53.16,9.85
-0.22,0.66,-0.01,9.58,43.38,28.85
-0.54,0.71,-0.23,39.32,16.03,37.47
-0.55,0.96,-0.39,34.85,15.64,42.63
-0.57,1.19,-0.49,23.98,-0.01,27.71
-0.87,1.16,-0.66,-6.47,-11.69,13.31
-1.02,1,-0.57,-29.37,-18.49,20.86
-0.79,1.31,-0.41,-29.5,-66.99,33.57
-0.2,1.2,0.33,-60.29,-108.4,48.18
0.28,0.68,0.07,8.19,-77.69,46.64
0.33,0.87,-0.39,3.85,-45.43,58.87
0.32,1.1,-0.09,-7.4,-4.83,79.27
0.17,0.98,0.02,-6.76,-13.05,74.76
-0.25,0.93,-0.18,-6.4,-30.56,63.92
0,0.92,-0.29,-4.02,-53.44,55.95
0.24,0.95,-0.23,-4.75,-38.1,55.09
0.14,0.94,-0.18,-3.59,-13.09,55.9
0.09,0.97,-0.14,-3.14,5.52,55.57
0.13,1.01,-0.14,-6.29,20.21,54.61
0.01,1,-0.13,-12.34,24.12,58.24
-0.02,0.93,-0.12,-13.32,18.21,58.95
-0.03,0.93,-0.17,-8.92,10.96,57.79
-0.08,0.93,-0.14,-6.02,9.27,56.34
-0.1,0.95,-0.14,-6.1,10.8,54.86
-0.06,0.92,-0.15,-4.49,1.18,56.47
-0.03,0.92,-0.16,-2.85,-1.89,56.21
0.02,0.94,-0.19,-2.16,5.82,53.59
-0.03,0.92,-0.17,-2.79,11.85,50.14
-0.04,0.91,-0.17,-1.33,13.96,43.59
0,0.92,-0.21,1.63,14.36,38.06
0.08,0.95,-0.23,3.74,24.26,35.32
0.12,1.07,-0.29,0.95,39.96,32.06
0.09,1.2,-0.32,-5.47,49.04,29.54
0.18,1.15,-0.41,-4.04,56.6,25.4
-0.1,1.2,-0.26,-15.37,94.11,16.31
-0.21,1.33,-0.25,-14.27,87.74,9.18
-0.33,1.17,-0.13,-23.24,84.87,-5
-0.3,1.04,-0.12,-21.57,85.2,-31.46
-0.28,1.07,0.06,-37.41,113.02,-70.04
-0.26,0.87,0.04,-38.08,130.78,-106.33
-0.34,0.73,-0.06,-22.76,125.01,-140.37
-0.29,0.82,-0.14,4.31,77.78,-159.43
-0.03,1.19,-0.12,27.71,51.08,-164.08
0.08,1.37,-0.18,39.34,62.53,-148.68
0.11,1.19,-0.13,51.44,62.58,-135.32
0.01,1.22,-0.06,60.63,38.53,-132.31
-0.15,1.17,-0.09,66,-5.63,-120.28
-0.22,1.06,-0.08,64.61,-48.56,-97.07
-0.21,0.98,-0.01,63.67,-101.09,-81.97
0.05,0.93,-0.09,68.33,-130.06,-78.74
0.17,0.97,-0.04,58.11,-104.41,-67.14
0.29,0.97,0,45.81,-71.66,-54.92
0.41,0.81,-0.02,28.02,-20.87,-52.5
0.32,0.76,0.01,13.09,19.29,-38.35
0.15,0.76,0.05,0.93,55.73,-22.88
0.01,0.77,0.09,-10.95,79.89,-2.79
-0.16,0.74,0.11,-11.56,81.05,21.05
-0.38,0.73,0.01,9.65,60.02,41.47
-0.62,0.85,-0.27,34.43,44.01,52.56
-0.61,1.04,-0.57,39.53,46.33,56.95
-0.61,1.16,-0.89,16.44,31.89,36.82
-0.98,1.07,-0.52,-17.1,5.33,19.95
-1.08,0.94,-0.38,-25.01,18.17,15.51
-0.62,1.25,-0.39,-31.66,-30.47,31.77
0.04,1.16,0.7,-86.01,-40.05,73.63
-1.04,0.86,-0.28,22.4,-46.86,42.04
0.32,0.89,-0.58,-4.52,-123.31,54.4
1.07,0.85,0.09,-1.88,-63.13,64.7
0.66,0.99,-0.11,-1.24,12.31,68.98
-0.15,0.99,-0.24,-2.76,18.88,52.81
0.06,0.95,-0.3,-5.89,2.26,47.23
0.25,0.92,-0.22,-6.75,19.6,45.41
0.09,0.92,-0.2,-4.27,36.96,42.73
0.08,0.94,-0.24,-6.5,56.09,40.92
0.03,0.98,-0.24,-9.73,73.54,38.79
-0.05,0.95,-0.24,-11.27,61.65,40.17
-0.06,0.9,-0.24,-3.69,37.39,42.95
-0.02,0.93,-0.21,2.13,32.75,40.21
0.04,0.96,-0.19,1.31,45.1,35.11
0.06,0.97,-0.24,-0.6,57.24,31.21
0.05,0.98,-0.26,1.13,59.98,26.99
0.05,0.97,-0.28,-0.72,65.12,24.45
0.02,0.98,-0.25,-2.63,71.55,20.67
0.16,0.91,-0.33,-0.93,62.89,19.49
0.16,1.04,-0.21,2.76,90.66,14.24
0.04,1.04,-0.13,0.11,103.66,14.69
0.06,1.01,-0.12,-3.02,97.56,17.59
0.01,0.97,-0.17,-6.09,90.49,19.14
-0.04,0.92,-0.28,-7.41,86.53,19.32
-0.05,0.98,-0.3,-8,74.79,19.14
0.06,1.06,-0.29,-9.79,75.13,19.05
0.2,1,-0.15,-9.99,99.26,15.89
0.2,0.95,-0.09,-7.35,136.99,6.16
-0.02,1.03,-0.22,-2.84,173.21,-6.63
-0.13,1.21,-0.23,-11.82,206.53,-33.46
-0.25,1.18,-0.15,-29.3,239.33,-74.69
-0.38,0.77,-0.02,-33.11,246.89,-110.76
-0.45,0.62,0.08,-18.44,204,-138.89
-0.13,0.89,0.03,2.5,123.18,-149.05
0.12,1.37,-0.05,22.63,114.94,-156.51
-0.06,1.51,0.06,27.99,127.06,-141.52
0.16,1.23,0.18,26.31,111.64,-130.67
0.13,1.12,0.19,38.49,92.17,-128.89
0.07,1.19,0.19,39.61,78.18,-119.49
0.01,1.12,0.16,37.39,72.97,-113.5
-0.06,1.03,0.14,30.92,63.54,-107.4
-0.03,1,0.13,20.85,56.66,-103.05
-0.03,0.93,0.04,16.65,47.14,-99.35
-0.02,0.96,-0.02,11.67,45.25,-89.16
0.01,0.92,-0.09,7.92,50.37,-79.63
0,0.87,-0.15,-0.39,64.92,-69.67
0,0.84,-0.15,-10.96,82.98,-52.18
-0.13,0.77,-0.16,-14.83,86.95,-34.44
-0.23,0.75,-0.16,-19.32,70.73,-21.61
-0.18,0.78,-0.18,-27.56,53.5,-7.33
-0.16,0.76,-0.18,-29.02,57.28,7.79
-0.22,0.74,-0.27,-16.73,77.95,22.67
-0.42,0.8,-0.29,-7.72,71.08,31.44
-0.74,0.98,-0.3,-8.57,26.95,33.99
-0.94,1.06,-0.26,-13.01,-10.82,24.89
-0.94,1.07,-0.56,-16.99,-17.22,21.34
-0.87,1.02,-0.96,-16.02,-36.58,12.05
-0.25,1.46,0.05,-67.83,-72.45,46.31
0.82,0.46,0.46,8.8,-3.86,46.32
0.06,1.06,-0.21,-1.6,42.2,53.37
-0.13,1.25,-0.03,-26.05,12.82,75.63
0.05,0.92,-0.1,-17.45,-28.13,63.75
0.01,0.81,-0.29,-6.89,-20.47,56.21
0.25,1,-0.29,-8.53,9.47,49.91
0.15,0.99,-0.26,-12.85,39.8,40.41
-0.03,0.95,-0.26,-14.07,40.34,41.54
-0.09,0.95,-0.22,-14.07,25.02,43.88
0.02,0.96,-0.2,-13.9,18.38,46.11
0.11,0.95,-0.22,-15.02,35.93,45.64
0,0.96,-0.24,-14.18,43.46,41.85
-0.05,0.97,-0.24,-13.55,32.09,42.41
0.03,0.96,-0.22,-12.4,27.8,43.11
0.01,0.96,-0.21,-12.2,31.21,41.24
-0.05,0.96,-0.18,-10.44,25.6,40.59
0.01,0.97,-0.13,-8.43,27.24,40.15
-0.04,0.97,-0.15,-8.15,37.07,35.92
-0.11,0.94,-0.17,-6.72,34.31,31.69
-0.08,0.95,-0.21,-4.25,27.9,28.83
-0.05,0.92,-0.25,-2.53,20.35,28.94
0.02,0.94,-0.35,2.89,12.4,29.19
0.11,1.07,-0.17,-0.27,30.43,27.79
0.11,1.11,-0.06,-4.85,43.08,29.35
0.07,1.1,-0.08,-7.58,50.44,30.63
-0.01,1.06,-0.16,-7.51,35.32,30.71
0,1.04,-0.23,-6.07,38.8,29.13
0.03,1.03,-0.28,-8.34,66.13,23.31
-0.14,1.35,-0.31,-3.57,82.5,9.37
-0.25,0.93,-0.19,-14.63,99.89,-5.53
-0.19,1.02,-0.1,-18.45,108.44,-38.92
-0.3,1.13,0.21,-37.23,139.67,-81.92
-0.2,0.86,0.17,-38.05,133.8,-109
-0.28,0.72,-0.1,-20.03,98.39,-130.86
-0.3,0.9,-0.21,1.32,28.44,-138.31
-0.15,1.32,-0.24,21.65,1.64,-139.22
0.06,1.42,-0.23,19.88,6.89,-128.77
0.19,1.2,-0.22,28.18,9.66,-124.72
0.07,1.16,-0.17,37.63,-8.5,-117.21
-0.03,1.1,-0.11,45.47,-33.68,-103.68
-0.02,1,-0.11,54.21,-52.34,-89.46
0.02,0.98,-0.17,58.93,-66.11,-76.79
0.12,1,-0.21,55.43,-75.5,-68.39
0.17,0.93,-0.19,47.87,-71.67,-58.63
0.19,0.89,-0.17,45.27,-56.74,-47.76
0.25,0.86,-0.17,27.47,-28.41,-41.39
0.12,0.78,-0.08,17.51,-16.26,-23.94
0.03,0.77,-0.05,8.75,-8.9,-5.64
-0.01,0.76,-0.04,2.49,-0.71,6.64
-0.11,0.79,-0.01,-2.39,0.86,22.18
-0.18,0.75,0,7.25,3.53,36.66
-0.41,0.8,-0.16,21.15,1.87,40.76
-0.68,1.01,-0.24,23.24,-14.65,38.65
-0.72,1.11,-0.36,10.33,-35.11,25.23
-0.85,1.01,-0.62,0.4,-48.92,18.49
-0.88,0.97,-0.53,-30.48,-57.22,12.68
-0.73,1.06,-0.42,-29.64,-85.12,24.32
-0.09,1.47,0.14,-47.78,-103.84,43.63
0.4,0.73,-0.18,14.7,-53.63,42.47
0.38,0.96,-0.12,4.13,-30.15,49.11
0.46,1.17,0.06,-15.27,24.77,83.5
0.16,1.03,0.05,-21.8,-1.18,87.19
-0.24,0.89,-0.15,-17.76,-33.82,77.54
-0.1,0.86,-0.34,-10.4,-54.86,68.64
0.29,0.93,-0.32,-9.8,-33.06,64.05
0.16,0.93,-0.27,-10.47,-3.07,60.06
0,0.99,-0.16,-14.75,12.05,60.03
-0.02,0.95,-0.12,-16.39,9.27,59.27
-0.04,0.92,-0.15,-14.46,-0.75,60.37
-0.03,0.93,-0.17,-12.04,-5.89,58.38
-0.01,0.97,-0.14,-12.26,-12.81,56.09
0.03,0.94,-0.14,-11.59,-24.19,55.27
0.09,0.96,-0.15,-9.81,-27.81,54.52
0.16,0.97,-0.12,-7.27,-22.05,53.58
0.16,0.98,-0.1,-6.37,-11.57,54.04
0.17,0.99,-0.08,-6.7,2.12,52.47
0.14,1,-0.12,-6.76,11.73,49.76
0.12,1.06,-0.14,-7,11.14,49.47
0.14,1.09,-0.14,-9.23,8.02,52.95
0.11,1.1,-0.12,-8.74,11.04,51.92
-0.01,1.02,-0.2,-6.86,21.85,47.44
-0.12,1.06,-0.26,-10.54,32.16,43.64
-0.25,1.07,-0.28,-17.9,31.69,34.15
-0.26,1.02,-0.28,-24.51,23.6,20.09
-0.16,1.04,-0.35,-26.52,29.33,7.19
-0.23,1.33,-0.31,-25.98,30.75,-8.36
-0.25,0.97,-0.21,-24.12,35.12,-25.23
-0.24,1,-0.02,-20.24,52.89,-63.08
-0.15,1,0.18,-39.73,85.66,-102.06
-0.06,0.72,0.05,-13.58,90.77,-138.34
-0.15,0.82,-0.18,13.52,61.08,-157.06
-0.14,1.27,-0.19,32.73,30.41,-155.22
0.09,1.38,-0.18,37.82,23.69,-137.93
0.19,1.15,-0.15,44.21,23.77,-130.13
0.06,1.12,-0.11,58.27,2.26,-130.53
-0.11,1.15,-0.14,67.61,-40.54,-115.2
-0.16,1.08,-0.15,70.22,-92.13,-97.85
-0.03,1.01,-0.12,73.53,-139.14,-84.42
0.18,1,-0.2,72.53,-148.46,-71.67
0.33,0.97,-0.16,67.52,-114.66,-62.05
0.45,0.94,-0.16,59.32,-59.08,-57.71
0.44,0.88,-0.09,44.9,-9.39,-44.24
0.34,0.78,-0.02,33.02,22.16,-34.17
0.06,0.81,0,23.37,46.57,-17.83
-0.17,0.84,0.1,10.21,47.56,5.02
-0.27,0.76,0.14,11.6,16.54,20.42
-0.36,0.69,-0.08,35.45,-6.46,30.98
-0.31,0.78,-0.35,45.38,1.4,42.64
-0.23,0.93,-0.52,50.4,43.51,45.05
-0.39,1.15,-0.68,35.04,57.18,36
-1.14,1.09,-0.36,-5.02,5.09,27.12
-1.32,0.92,-0.5,-8.73,-64.31,26
-0.77,0.93,-0.48,-16.51,-107.55,43.74
-0.05,2,0.17,-51.65,-149.17,82.6
-0.11,0.69,0.36,-3.76,-73.43,62.67
-0.39,1.36,-0.55,-15.21,-115.08,62.87
0.95,0.76,0.01,-18.37,-86.15,62.08
1.04,0.7,0.07,-10.82,7.97,82.36
-0.11,1.13,-0.21,-10.47,53.83,79.6
-0.18,0.95,-0.29,-15.51,-10.25,65.45
0.15,0.91,-0.17,-18.54,-43.1,65.92
0.08,0.87,-0.18,-8.97,-28.62,60.24
0.26,0.93,-0.22,-6.74,10.72,53.44
0.25,0.98,-0.19,-9.82,55.1,47.82
-0.07,0.94,-0.19,-11.53,67.05,42.27
-0.29,0.9,-0.24,-7.79,36.59,40.7
-0.09,0.93,-0.25,-3.72,8.24,40.54
0.02,0.95,-0.2,-5.03,4.39,38.59
0.01,0.93,-0.16,-5.42,4.27,39.09
0.06,0.95,-0.15,-2.51,0.47,41
0.18,0.98,-0.14,0.15,4.22,41.95
0.24,0.99,-0.11,-0.1,17.05,42.63
0.21,1.04,-0.13,-1.66,35.95,43.73
0.12,1.04,-0.13,-2.08,47.1,41.92
0.01,1.06,-0.16,-3.3,52.48,40.52
0.13,1.01,-0.37,3.09,55.02,39.68
-0.07,1.03,-0.28,-2.85,74.36,35.86
-0.07,1.07,-0.27,-8.1,80.79,29.97
-0.06,1.04,-0.28,-15.85,83.89,22.85
-0.09,0.95,-0.28,-17.17,83.88,13.82
-0.18,1.28,-0.31,-5.19,88.79,0.99
0.01,1.1,-0.12,-17.63,116.98,-14.13
-0.07,1.07,-0.04,-20.37,150.1,-51.44
-0.23,1.1,0.21,-36.01,190.27,-95.47
-0.19,0.79,0.14,-32.7,183.42,-120.1
-0.33,0.61,-0.06,-13.51,152.73,-148.62
-0.13,0.95,-0.05,14.2,94.75,-163.28
0.05,1.36,-0.03,31.79,100.41,-159.07
0.08,1.37,-0.08,30.85,112.7,-141.31
0.09,1.19,-0.02,42.14,98.68,-132.75
-0.04,1.11,0.09,49.15,60.91,-126.44
-0.13,1.05,0.03,53.99,20.14,-109.86
-0.14,1.03,-0.01,53.02,-16.97,-94.23
-0.12,1,0.05,46.62,-47.84,-78.57
0.02,0.94,0.04,45.66,-56.47,-63.5
0.16,0.92,0.03,38.34,-39.08,-60.39
0.23,0.94,-0.01,24.69,-7.18,-51.95
0.27,0.86,-0.02,14.79,37.09,-38.87
0.22,0.75,-0.06,8.76,78.13,-23.43
0.03,0.73,-0.09,6.47,102.58,-10.7
-0.18,0.73,-0.15,5.85,107.52,3.15
-0.27,0.73,-0.22,10.39,100.57,17.44
-0.37,0.74,-0.27,21.71,82.59,31.93
-0.56,0.87,-0.33,23.66,63.73,42.99
-0.77,1.11,-0.37,13.24,19.24,43.51
-1.01,1.17,-0.44,-15.98,-35.68,29.12
-1,0.95,-0.42,-21.78,-80.69,11.44
-0.7,1.02,-0.35,-31.59,-59.79,5.73
-0.61,1.28,-0.42,-6.91,-41.59,18.62
0.02,1.26,0.03,-23.95,-52.24,37.55
0.07,0.89,0.1,-9.55,-45.48,38.97
0.67,0.9,-0.13,-8.33,-17.56,54.98
0.47,0.99,-0.14,-20.69,3.11,75.56
0.07,0.97,-0.19,-15.92,-5.55,77.89
0.07,0.93,-0.27,-16.96,-22.38,66.34
0.37,0.96,-0.23,-17.56,-4.25,65.16
0.08,0.92,-0.23,-16.12,20.21,56.92
0.07,0.94,-0.21,-15.42,33.18,52.06
0.02,0.95,-0.18,-15.08,38.21,47.5
-0.1,0.92,-0.22,-13.42,27.68,44.94
-0.01,0.93,-0.27,-9.42,21.83,42.14
0,0.94,-0.22,-9.56,22.03,37.75
-0.03,0.95,-0.2,-8.13,21.08,36.5
0.03,0.96,-0.16,-6.78,17.05,37.06
0.06,0.96,-0.15,-4.34,22.12,36.19
0.05,0.96,-0.17,-1.73,20.47,34.85
0.15,1.01,-0.13,-1.61,21.57,36.02
0.14,1.04,-0.12,-3.34,27.52,38.39
0.09,1.03,-0.14,-3.85,33.56,38.93
0.11,1.05,-0.16,-5.08,42.68,38.91
0.1,1,-0.27,-0.98,61.34,38.16
-0.1,1,-0.26,-3.79,70.6,37.5
-0.12,1.05,-0.23,-5.85,66.7,33.66
-0.11,1.06,-0.26,-8.31,63.93,29.86
-0.1,1.01,-0.27,-11.89,68.27,24.06
-0.01,1.01,-0.26,-16.44,76.21,17.07
-0.08,1.28,-0.31,-8.15,93.27,5.83
-0.05,1.08,-0.06,-21.82,127.5,-13.63
-0.07,1.02,-0.01,-23.53,159.91,-53.21
-0.36,1.07,0.18,-45.69,206.11,-104.79
-0.32,0.74,0.06,-33.71,181.52,-134.48
-0.4,0.74,-0.07,-13.85,139.09,-160.53
-0.17,1.06,-0.16,12.08,77.04,-173.01
-0.08,1.34,-0.15,30.11,69.43,-168.16
-0.01,1.33,-0.1,36.01,61.6,-153.02
0.11,1.26,-0.1,47.51,48.56,-142.99
0.01,1.2,0,52.28,32.89,-136.82
-0.08,1.06,-0.02,54.6,8.03,-119.12
-0.08,0.95,-0.05,56.31,-15.38,-104.42
-0.03,0.95,0.03,49.72,-47.58,-86.6
0.06,0.91,0.03,51.45,-62.52,-64.34
0.17,0.87,0,42.9,-64.21,-55.12
0.37,0.87,-0.03,28.99,-28.55,-44.76
0.38,0.79,-0.01,12.78,25.84,-31.47
0.33,0.72,-0.04,3.41,69.18,-12.08
0.12,0.7,-0.08,5.61,107.89,7.73
-0.19,0.65,-0.16,19.06,119.64,26.9
-0.55,0.7,-0.31,35.5,89.26,45.62
-0.82,0.93,-0.33,29.89,32.79,52.79
-1.09,1.25,-0.3,12.86,-38.19,34.01
-0.99,0.99,-0.57,1.85,-85.44,19.95
-0.89,1.07,-0.5,-17.92,-80.56,14.6
-0.66,1.03,-0.29,-40.59,-63.37,6.7
-0.25,1.67,0.06,-20.66,-30.79,25.31
0,1.09,0.08,-46.26,-15.85,25.76
-0.24,0.83,0.08,7.85,0.76,51.21
0.47,0.97,-0.25,-12.16,-16.27,38.02
0.58,0.9,-0.13,-21.43,-2,72.08
0.02,0.94,-0.14,-15.73,-19.94,87.88
-0.05,0.93,-0.3,-10.31,-44.53,69.89
0.36,0.99,-0.25,-12.89,-32.82,69.72
0.26,0.93,-0.15,-16.28,-1.24,65.16
0.09,0.95,-0.18,-14.78,24.04,60.08
0.08,0.95,-0.2,-15,41.21,55.98
-0.04,0.96,-0.2,-16.96,38.47,53.53
-0.04,0.92,-0.2,-16.37,21.31,53.27
-0.01,0.94,-0.23,-13.08,16.06,53.23
0.04,0.95,-0.22,-10.56,14.5,52.5
0.03,0.96,-0.18,-9.3,17,51.77
-0.01,0.94,-0.15,-6.67,17.15,50.7
0.02,0.95,-0.12,-3.35,13.99,50.29
0.07,0.97,-0.13,0.56,18.59,46.72
0.03,1,-0.18,1.21,26.62,43.83
0.05,1.04,-0.19,-0.31,32.66,44.41
-0.02,1.03,-0.17,-3.96,36.73,43.1
0.05,0.98,-0.3,-3.05,40.56,41.1
-0.04,1.04,-0.27,-10.92,63.83,35.94
-0.07,1.08,-0.28,-15.72,57.92,33.07
-0.03,1.06,-0.27,-20.73,65.2,28.84
-0.05,1.08,-0.26,-25.14,63.48,25.03
0.07,1.08,-0.14,-29.69,69.9,21.38
0,1.14,-0.21,-23.42,96.82,10.05
-0.07,1.18,0.03,-44.12,135.96,-15.98
-0.27,0.79,-0.03,-37.09,147.15,-50.54
-0.45,1.02,-0.08,-42.6,152.02,-99.54
-0.45,0.7,-0.06,-27.8,110.58,-125.66
-0.37,0.69,-0.2,0.76,73.89,-147.96
-0.12,1.14,-0.18,29.7,17.52,-159.18
0.09,1.4,-0.04,41.32,20.79,-154.21
0.24,1.24,-0.02,40.85,35.07,-140.34
0.19,1.2,0.02,54.26,36.01,-134.31
-0.02,1.29,0.05,58.02,29.17,-127.06
-0.1,1.13,-0.01,56.6,3.41,-109.03
-0.13,1.02,0.03,54.66,-32.22,-97.52
-0.04,0.97,0.04,55.7,-67.4,-82.57
0.12,0.92,-0.05,49.79,-73.01,-81.34
0.23,0.92,0.02,42.31,-40.29,-69.02
0.35,0.91,-0.04,31.27,4.13,-57.45
0.34,0.78,-0.06,16.95,44.87,-41.32
0.22,0.77,-0.02,12.6,72.81,-23.81
0.06,0.79,-0.07,5.79,90.76,-4.21
-0.05,0.74,-0.09,6.18,99.08,17.02
-0.15,0.68,-0.23,26.15,96,36.34
-0.38,0.73,-0.46,43.99,73.53,52.14
-0.66,0.89,-0.52,45.66,72.35,63.37
-0.86,1.25,-0.72,32.38,19.67,54.49
-1.35,1.04,-0.32,-22.47,-98.06,33.7
-1.28,0.9,-0.52,-17.5,-148.47,19.57
-0.64,1.49,-0.15,-30.65,-155.94,38.31
0.3,1.17,-0.16,-50.93,-138.79,62.63
0.06,0.99,0.1,1.85,-90.95,37.47
0.83,0.93,-0.18,-0.11,-33.4,45.89
0.87,0.89,-0.03,-20.89,36.41,74.33
0.09,1.04,-0.11,-20.85,46.53,89.95
-0.43,0.94,-0.27,-19.25,-12.73,69.49
0.07,0.91,-0.27,-18.87,-54.76,64.14
0.26,0.92,-0.19,-15.96,-39.44,60.51
0.24,0.94,-0.23,-11.5,8.04,54.37
0.19,0.96,-0.18,-14.32,55.43,46.87
-0.05,0.98,-0.17,-17.46,72.33,38.17
-0.29,0.91,-0.24,-17.09,46.24,35.9
-0.25,0.86,-0.25,-8.27,9.66,35.32
0,0.95,-0.25,-2.89,-5.56,35.73
0.09,0.97,-0.16,-6.08,-2.82,38.56
0.11,0.96,-0.11,-6.5,2.81,44.37
0.14,0.96,-0.12,-4.12,12.66,45.6
0.06,0.95,-0.16,-3.93,28.02,43.19
-0.01,0.95,-0.21,-3.67,29.6,41.4
-0.01,0.95,-0.19,-1.64,24.13,39.58
0.01,0.97,-0.19,-0.63,24.63,37.23
0.02,1,-0.21,-2.74,30.45,36.24
0.04,1.05,-0.24,-5.11,32.37,36.75
0.04,0.97,-0.36,-3.53,31.5,37.29
0.14,1.14,-0.34,-6.12,77.09,29.89
-0.06,1.08,-0.29,-15.23,92.84,24.43
-0.13,1.05,-0.22,-21.34,84.85,15.89
-0.17,1.07,-0.25,-15.15,75.66,9.01
-0.11,1.3,-0.1,-25.08,96.11,-5.55
-0.06,0.98,-0.05,-28.71,124.54,-29.89
-0.22,1.05,-0.03,-37.4,160.76,-68.32
-0.39,0.95,0.1,-50.81,177.69,-103.89
-0.4,0.67,-0.08,-31.02,154.66,-137.86
-0.38,0.66,-0.26,-2.79,98.69,-155.85
-0.18,1.06,-0.15,24.09,47.42,-161.96
0,1.48,-0.11,41.08,44.05,-156.12
0.14,1.37,-0.14,39.14,40.48,-138.9
0.11,1.24,-0.08,51.46,28.62,-132.27
-0.06,1.2,0,57.24,5.31,-128.26
-0.06,1.06,-0.02,56.71,-21.67,-108.34
-0.07,0.94,-0.02,56.46,-47.66,-92.34
-0.01,0.94,-0.02,56.5,-68.28,-76.66
0.13,0.91,-0.06,49.85,-71.37,-66.05
0.18,0.89,-0.09,42.79,-53.03,-50.25
0.28,0.89,-0.03,24.97,-26.63,-31.02
0.35,0.76,-0.04,11.28,14.8,-15.47
0.3,0.7,-0.01,3.33,46,1.92
0.15,0.75,-0.08,-1.55,85,16.19
-0.08,0.74,-0.1,0.9,101.3,31.75
-0.4,0.66,-0.25,29.01,90.44,47.6
-0.79,0.84,-0.42,41.58,59.51,53.85
-1.09,1.08,-0.48,43.35,5.31,45.04
-0.88,1.2,-0.57,10.15,-51.04,22.39
-0.85,1.03,-0.45,-0.15,-70.29,13.69
-0.96,1.01,-0.36,-17.98,-56.58,10.32
-0.61,0.92,-0.2,-9.64,-61.96,17.33
-0.21,1.48,-0.37,-7.3,-100.69,45.29
0.07,0.85,0.52,-23.82,-84.19,67.93
-0.59,1.21,-0.28,-9.94,-96.76,38.66
0.62,0.9,-0.4,-14.57,-85.08,54.37
1.05,0.67,0.09,-10.02,-31.83,73.43
0.29,1.09,-0.17,-5.16,62.24,68.26
-0.19,1.03,-0.29,-16.65,18.6,64.88
0.02,0.94,-0.18,-16.49,-37.5,62.6
0.06,0.91,-0.24,-12.6,-43.63,61.61
0.32,0.92,-0.24,-10.02,-9.03,57.57
0.21,0.99,-0.16,-14.16,28.96,54.45
-0.04,0.97,-0.16,-16.85,36.21,50.63
-0.08,0.93,-0.19,-15.5,23.44,51.83
-0.03,0.92,-0.21,-11.86,20.07,51.06
-0.05,0.95,-0.21,-10.56,18.93,47.69
-0.07,0.94,-0.16,-10.02,7.26,46.76
-0.01,0.94,-0.12,-8.65,2.84,46.41
0.01,0.94,-0.16,-7.02,13.6,42.89
-0.06,0.93,-0.2,-4.13,18.22,37.47
-0.01,0.94,-0.21,-0.18,12.54,35.39
0.03,0.97,-0.19,0.42,13.29,35.12
0.07,1.01,-0.17,-1.05,17.2,34.92
0.15,1.04,-0.15,-2.42,28.05,35.7
0.15,1.1,-0.12,-3.76,45.59,35.4
0.28,1.04,-0.38,8.42,64.45,34.24
-0.03,1.08,-0.36,-3.32,107.89,28.94
-0.18,1.04,-0.34,-16.63,110.85,18.5
-0.27,1.02,-0.29,-22.66,93.44,10.83
-0.27,1.43,-0.16,-19.95,80.72,0.68
-0.13,1.02,-0.08,-20.41,79.18,-14.8
-0.15,1.08,-0.11,-24.04,95.34,-44.64
-0.26,1.08,0.09,-41.53,129.59,-79.44
-0.2,0.82,0.09,-41.94,145.37,-112.12
-0.28,0.64,-0.11,-25.7,130.24,-138.87
-0.22,0.86,-0.08,-0.51,77.89,-154.62
0.02,1.27,-0.05,27.89,58.73,-159.46
0.1,1.36,-0.06,26.31,75.93,-143.44
0.16,1.18,-0.03,37.6,80.78,-127.92
0,1.21,-0.01,48.51,57.98,-127.58
-0.12,1.07,-0.02,52.76,17.29,-113.24
-0.15,0.99,-0.08,58.53,-16.27,-96.03
-0.17,0.99,-0.05,53.42,-56.45,-77.44
0,0.9,-0.02,55.11,-90.65,-63.61
0.12,0.91,-0.09,52.44,-82.25,-56.62
0.18,0.93,-0.02,39.66,-58.6,-43.09
0.33,0.91,-0.04,21.92,-19.05,-31.37
0.33,0.78,0.04,14.53,22.01,-17.76
0.17,0.78,0.02,7.73,64.9,-2.1
-0.01,0.79,-0.03,1.8,85.77,13.26
-0.2,0.78,-0.06,2.57,88.44,30.97
-0.4,0.71,-0.17,21.52,74.31,45.7
-0.68,0.85,-0.29,24.53,46,50.02
-0.99,1.14,-0.35,26.85,-12.91,40.19
-0.84,1.12,-0.58,4.02,-46.36,23.18
-0.9,0.99,-0.49,-14.91,-51.22,14.44
-0.98,0.96,-0.4,-26.03,-40.94,2.73
-0.5,1.14,-0.12,-35.62,-39.09,11.91
0.12,1.29,-0.11,-34.14,-58.87,43.6
-0.35,0.89,0.01,5.28,-53.2,37.15
0.26,1.02,-0.37,-4.69,-74.23,46.26
0.87,0.89,0.07,-10.78,-42.29,71.49
0.4,1.04,-0.09,-10.85,-15.07,84.95
-0.17,0.99,-0.22,-11.68,-21.02,74.5
0.19,0.93,-0.29,-11.68,-39.53,66.09
0.3,0.97,-0.19,-14.01,-12.51,62.95
0.02,0.92,-0.19,-13.41,16.4,56.95
0.09,0.95,-0.21,-12.87,28.8,52.27
0.03,0.95,-0.18,-13.6,47.49,45.16
-0.13,0.94,-0.2,-14.47,45.76,42.18
-0.14,0.92,-0.22,-10.71,24.37,42.16
-0.1,0.93,-0.21,-7.74,9.73,41.41
-0.02,0.95,-0.18,-6.97,8.15,40.47
-0.03,0.95,-0.14,-6.91,8.43,40.65
-0.03,0.94,-0.16,-4.93,8.26,41.33
0,0.95,-0.17,-2.67,10.58,40.12
-0.03,0.94,-0.18,-0.98,14.83,37.14
-0.01,0.93,-0.17,1.48,15.35,35.55
0.08,0.98,-0.17,3.76,18.91,37.18
0.02,0.96,-0.2,0.93,28.34,40.05
0.05,0.98,-0.23,-2.13,31.75,40.82
0.05,1.05,-0.26,-3.4,35.11,39.85
0.18,1.05,-0.49,1.08,40.7,39.79
0.02,1.14,-0.29,-10.85,86.34,31.6
-0.11,1.05,-0.28,-13.43,79.11,26.53
-0.23,1.39,-0.25,-16.69,72.79,13.53
-0.13,1.09,-0.14,-20.11,78.26,-1.6
-0.12,1.12,-0.04,-27.69,113.24,-36.73
-0.29,1.04,0.11,-38.53,140.19,-73.97
-0.23,0.89,0.11,-47.3,156.87,-106.15
-0.34,0.68,-0.12,-27.76,138.21,-136.77
-0.4,0.74,-0.23,-1.57,78.17,-146.33
-0.12,1.15,-0.16,22.77,38.5,-147.77
0.09,1.43,-0.15,31.25,36.53,-136.58
0.12,1.27,-0.13,36.72,30.06,-125.42
0.07,1.26,-0.05,45.5,18.68,-124.4
-0.04,1.13,-0.04,48.21,-7.44,-110.8
-0.06,0.98,-0.07,54.51,-32.44,-94.51
-0.09,0.98,-0.04,54.06,-61.73,-82.44
-0.01,0.98,-0.06,51.97,-87.37,-70.86
0.12,0.95,-0.08,43.93,-75.82,-67.61
0.23,0.95,-0.04,33.97,-45.02,-57.32
0.29,0.88,-0.07,19,-7.42,-49.72
0.26,0.77,0.04,12.29,29.26,-37.47
0.14,0.78,-0.01,9.32,65.16,-23.6
-0.08,0.75,-0.05,7.54,77.66,-8.32
-0.15,0.75,-0.03,5.13,72.55,6.42
-0.17,0.69,-0.11,16.13,77.59,22.25
-0.35,0.71,-0.28,37.26,71.34,32.48
-0.5,0.89,-0.49,34.97,60.82,39.02
-0.68,1.04,-0.6,25.06,31.31,33.06
-0.88,1.01,-0.49,-1.92,-12.71,24.13
-1.11,0.97,-0.39,-15.06,-48.15,18.93
-0.91,0.98,-0.47,-20.55,-61.98,19.04
-0.58,1.95,-0.43,-23.02,-106.75,48.09
-0.06,0.94,0.37,-24.51,-108.82,55.44
-0.02,1.03,-0.07,-9.6,-92.92,48.02
0.98,0.86,-0.08,-8.21,-43.27,66.69
0.71,0.92,-0.04,-15.08,20.4,85.06
-0.12,1.04,-0.21,-16.54,31.39,84.66
-0.17,0.91,-0.27,-17.02,-21.76,66.31
0.13,0.92,-0.22,-15.09,-32.44,58.38
0.1,0.88,-0.22,-11.08,-13.16,52.09
0.19,0.96,-0.23,-8.72,18.05,47.5
0.08,0.99,-0.19,-13.15,43.11,39.97
-0.08,0.94,-0.21,-15.38,40.98,38.72
-0.06,0.91,-0.23,-13.88,29.31,41.65
0.01,0.93,-0.26,-9.1,27.15,41.67
-0.06,0.95,-0.22,-7.76,23.66,41.02
-0.07,0.95,-0.19,-7.98,9.31,42.62
-0.02,0.94,-0.18,-4.8,-5.29,45.18
0.04,0.96,-0.16,-2.4,-7.89,46.07
0.16,0.97,-0.14,-1.03,2.66,45.73
0.15,0.98,-0.14,-1.34,20.6,44.45
0.06,0.97,-0.18,-1.56,31.9,43.45
0.06,0.97,-0.21,-3.15,30.24,44.61
0.06,1,-0.22,-3.9,34.09,43.98
0.01,0.92,-0.33,-3.53,38.15,44.31
0.1,1.02,-0.33,-1.37,66.89,35.77
-0.07,1.08,-0.26,-8.55,84.77,28.92
-0.06,1.07,-0.21,-14.29,79.27,22.49
-0.06,1.02,-0.19,-14.49,68.9,18.56
-0.12,1.41,-0.31,-5.08,63.98,11.01
0.02,1.07,-0.21,-21.63,85.76,1.02
-0.01,1.05,-0.14,-24.63,115.4,-31.31
-0.27,1.06,0,-34.66,138.84,-67.05
-0.27,0.98,0.19,-49.15,161.48,-101.09
-0.31,0.68,-0.04,-33.18,151,-132
-0.47,0.58,-0.18,-7.18,88.56,-148.53
-0.28,0.97,-0.17,22.6,23.78,-154.3
-0.01,1.42,-0.2,41.4,17.2,-150
0.15,1.45,-0.15,36.22,28.23,-132.27
0.22,1.33,-0.19,40.96,23.12,-130.92
-0.03,1.21,-0.07,51.15,15.71,-123.96
-0.07,1.06,-0.08,53.67,-4.15,-106.44
-0.06,0.93,-0.03,54.83,-29.08,-88.51
-0.06,0.93,-0.01,52.15,-55.64,-76.35
-0.02,0.91,-0.05,54.09,-81.54,-62.11
0.08,0.97,-0.1,46.63,-82,-53.6
0.24,0.94,-0.02,28.47,-57.95,-45.83
0.33,0.88,-0.02,16.18,-13.16,-37.77
0.31,0.81,0,6.32,27.35,-21.83
0.09,0.76,-0.01,0.68,62.6,-9.18
-0.09,0.73,-0.04,-0.76,75.61,7.95
-0.15,0.71,-0.11,5.02,80.83,26.58
-0.47,0.65,-0.17,20.31,80.08,29.73
-0.72,0.91,-0.29,19.72,57.85,29.37
-0.85,1.04,-0.44,21.79,6.57,12.77
-0.64,0.98,-0.62,12.39,-8.66,1.12
-0.72,1.1,-0.52,-14.11,-27.87,-3.21
-0.84,0.89,-0.25,-27.51,-22.24,-3.95
-0.41,1.11,-0.07,-23.27,10.72,7.57
1.29,1.74,-1.95,-26.02,95.27,54.92
-0.52,0.96,0.33,-26.51,-77.08,47.1
-0.02,0.87,-0.39,2.93,-77.22,49.88
0.69,0.99,0.03,-13.62,-38.99,63.82
0.53,0.95,-0.03,-15,6.03,79.23
-0.11,0.99,-0.06,-14.11,1.28,80.38
-0.23,0.89,-0.21,-5.6,-42.42,63.37
0.28,0.98,-0.27,-4.39,-44.42,57.8
0.27,0.93,-0.24,-7.11,-8.62,54.04
0.13,0.98,-0.19,-9.04,18.9,52.31
0.09,0.98,-0.17,-10.11,40.89,49.13
0.02,0.95,-0.18,-13.23,55.21,46.84
-0.09,0.94,-0.19,-14.27,48.43,44.36
-0.13,0.92,-0.25,-8.74,38.62,41.19
-0.12,0.93,-0.24,-4.89,30.33,38.32
-0.12,0.95,-0.22,-5.22,21.76,37.63
-0.11,0.93,-0.19,-4.3,11.06,39.66
-0.02,0.94,-0.15,-2.53,7.09,41.32
0.02,0.95,-0.15,-1.57,17.56,40.56
-0.01,0.93,-0.14,-1.44,31.44,38.76
-0.08,0.93,-0.18,-0.08,37.88,34.84
-0.17,0.89,-0.24,2.32,32.92,31.15
-0.13,0.89,-0.25,2.6,19.81,31.14
0.02,0.97,-0.28,1.81,11.31,34.4
0.18,1.02,-0.23,1.41,17.5,34.77
0.26,1.17,-0.22,-2.24,48.27,32.72
0.26,1.09,-0.42,-2.62,64.79,29.22
0.01,1.14,-0.21,-8.22,108.59,19.15
-0.1,1.13,-0.29,-10.1,114.66,13.94
-0.21,1.36,-0.23,-16.37,126.6,-2.51
-0.3,1.03,-0.08,-25.46,138.8,-25.09
-0.31,1.11,0,-33.25,165.17,-66.85
-0.4,1.02,0.15,-52.79,179.76,-104.86
-0.3,0.74,-0.03,-37.9,163.79,-140.15
-0.31,0.71,-0.25,-8.72,113.13,-156.25
-0.14,1.06,-0.16,14.9,68.63,-158.37
-0.01,1.44,-0.1,28.57,72.38,-154.27
0.07,1.26,-0.14,30.49,58.11,-134.9
0.05,1.21,-0.08,44.71,26.13,-131.53
-0.06,1.2,0.02,49.15,3.26,-125
0,1.05,-0.05,50.11,-9.21,-109.39
0,0.93,-0.05,49.32,-16.61,-94.07
-0.04,0.93,0,44.92,-26.73,-81.14
0.04,0.89,-0.02,41.63,-40.36,-72.85
0.08,0.93,-0.09,37.08,-37.08,-58.18
0.18,0.9,-0.06,21.36,-20.89,-44.93
0.29,0.82,-0.08,12.46,16.05,-31.18
0.21,0.75,-0.03,2.21,37.71,-13.31
0.11,0.73,-0.06,0.09,63.36,-0.69
-0.04,0.75,-0.07,-0.73,84.47,17.73
-0.21,0.74,-0.12,10.15,90.34,33.85
-0.39,0.78,-0.3,26.24,72.65,45.21
-0.74,0.9,-0.39,28.89,52.23,47.34
-0.91,1.14,-0.64,26.02,10.36,36.73
-0.91,1.09,-0.53,-5.52,-29.32,22.56
-0.99,0.97,-0.49,-16.73,-45.19,16.44
-0.79,1,-0.38,-34.36,-39.89,12.09
-0.25,0.83,-0.53,-28.5,-85.22,26.86
0.6,1.68,0.84,-49.47,-66.4,93.23
-0.44,0.9,-0.03,14.53,42.23,62.4
-0.98,1.28,-0.9,-9.12,-85.02,44.99
0.69,0.85,0.19,-23.61,-105.24,58.78
0.95,0.81,0.01,-6.86,-21.37,59.31
-0.14,0.96,-0.38,-7.1,18.89,56.3
-0.03,0.98,-0.33,-9.6,-16.1,48.85
0.32,0.96,-0.2,-13.56,-13.07,49.49
0.04,0.91,-0.18,-10.35,3.21,48.78
0.02,0.97,-0.2,-9.08,5.24,45.63
0.14,0.97,-0.2,-11.57,21.76,44.08
0.08,0.95,-0.22,-15.24,39.03,44.55
-0.03,0.94,-0.18,-13.78,39.34,46.39
-0.11,0.95,-0.14,-10.7,21.47,49.51
-0.02,0.94,-0.14,-9.37,6.8,51.71
0.03,0.93,-0.15,-7.66,6.38,52.47
0.02,0.94,-0.17,-4.53,11.89,52.42
0,0.94,-0.18,-1.95,17.11,48.32
-0.08,0.94,-0.21,-2.98,26.3,41.34
-0.13,0.91,-0.22,-1.6,27.17,32.95
-0.11,0.93,-0.26,1.99,20.02,27.43
0.04,0.98,-0.25,2.52,21.02,26.77
0.15,1.04,-0.24,1.33,35.63,28.31
0.16,1.01,-0.26,-2.7,55.79,28.27
0.15,1.06,-0.35,0.05,87.41,18.07
-0.09,1.12,-0.24,-10.46,100.6,13.35
-0.03,1.11,-0.16,-16.69,90.89,10.22
-0.13,1.13,-0.18,-9.38,82.21,6.02
-0.12,1.15,-0.06,-17.89,97.02,-4.82
-0.12,0.97,-0.11,-19.67,106.44,-29.79
-0.22,1.14,0.01,-36.27,136.71,-66.15
-0.18,0.97,0.18,-49.86,160.97,-99.57
-0.21,0.76,0,-36.57,159.34,-129.61
-0.27,0.78,-0.13,-15.8,112.41,-144.86
-0.1,1.08,-0.03,8.21,73.89,-148.6
0.06,1.38,-0.04,20.95,83.25,-143.16
0.08,1.22,-0.09,24.75,89.09,-127.37
0.02,1.16,-0.06,34.47,56.24,-127.08
-0.09,1.17,0.01,41,21.73,-118.8
-0.08,1.04,0.01,38.52,-5.4,-105.6
-0.02,0.96,-0.01,37.47,-27.42,-92.61
0.02,0.95,0.01,33.41,-41.61,-79.27
0.11,0.92,-0.02,27.92,-38.21,-66.63
0.16,0.89,-0.04,28.73,-19.93,-48.96
0.22,0.88,-0.06,20.42,8.7,-40.05
0.28,0.83,-0.08,11.89,38.21,-23.92
0.22,0.8,-0.07,2.76,68.83,-6.05
0.04,0.77,-0.08,-1.86,93.69,4.49
-0.12,0.76,-0.07,-1.32,98.7,18.43
-0.31,0.72,-0.16,6.43,95.06,27.74
-0.53,0.71,-0.36,21.92,87.53,33.42
-0.77,0.79,-0.38,28.73,73.12,32.82
-0.86,1.12,-0.61,39.92,17.8,23.89
-0.84,1.14,-0.41,-10.27,-14.8,5.38
-0.94,0.95,-0.35,-7.57,-21.94,-4.37
-0.89,1.01,-0.3,-13.56,-19.05,-5.2
-0.71,0.93,-0.24,-2.44,-31.83,4.92
-0.21,1.58,-0.21,-39.76,-89.1,36.33
0.17,0.78,-0.02,-1.45,-73.32,59.49
-0.24,1.24,-0.12,-14.74,-81.15,57.88
0.73,0.97,-0.01,-19.82,-51.26,67.56
0.84,0.83,0.06,-18.37,3.21,78.07
0.01,1,-0.22,-15.09,46.35,71.36
0,0.96,-0.27,-19.37,12.16,67.75
0.15,0.92,-0.22,-19.59,-1.69,61.7
0.02,0.89,-0.26,-17.39,7.18,56.4
0.02,0.95,-0.22,-15.41,16.5,50.03
0.02,0.94,-0.2,-13.22,21.85,44.36
0,0.92,-0.25,-10.18,29.47,41.42
-0.12,0.92,-0.23,-7.95,25.4,37.32
-0.1,0.95,-0.21,-6.64,14.54,33.99
-0.02,0.92,-0.24,-4.56,5.68,31.44
0.02,0.93,-0.23,-0.16,-0.98,32.14
0.13,0.97,-0.2,0.07,0.95,34.75
0.13,0.99,-0.17,-2.22,7.81,35.74
0.14,0.97,-0.14,-4.18,13.37,37.34
0.16,0.99,-0.13,-4.6,20.08,37.49
0.12,1.01,-0.15,-1.16,22.48,36.66
0.09,1.06,-0.19,-0.15,27.62,39.56
0.07,1.04,-0.13,-4.15,40.59,40.83
0.18,0.92,-0.33,4.22,49.47,37.56
-0.07,1,-0.26,0.47,76.35,31.89
-0.1,1.06,-0.27,-6.18,83.31,26.89
-0.19,1,-0.26,-13.5,72.75,20.94
-0.15,1,-0.24,-16.96,59.34,17.15
0.03,1.07,-0.24,-19.07,58.64,14.95
0.01,1.4,-0.24,-19.21,74.44,5.4
0.02,0.96,-0.11,-24.05,102.27,-12.82
-0.08,1.16,-0.07,-31.64,138.66,-53.68
-0.32,1.13,0.26,-51.38,174.53,-96.31
-0.18,0.75,0.12,-44.96,172.34,-127.71
-0.36,0.62,-0.16,-22.3,124.12,-148.62
-0.35,0.93,-0.11,3.64,43.85,-154.73
-0.05,1.36,-0.16,21.08,34.23,-147.15
0.07,1.3,-0.2,20.42,37.88,-134.85
0.08,1.1,-0.11,32.27,29.65,-127.92
0.07,1.14,-0.02,41.18,5.71,-124.11
0.07,1.12,-0.06,51.27,-9.15,-110.19
-0.05,1.03,-0.1,52.74,-14.67,-96.37
-0.07,0.97,-0.03,51.79,-28.02,-82.82
0.04,0.92,-0.02,50.92,-38.99,-73.76
0.03,0.9,-0.04,50.85,-43.6,-63.84
0.1,0.93,-0.07,42.44,-35.56,-51.17
0.19,0.88,-0.07,28.18,-7.25,-40.82
0.17,0.83,-0.02,19.19,18.36,-24.47
0.08,0.8,-0.03,13.95,39.47,-7.52
-0.05,0.77,-0.04,9.18,49.53,7.05
-0.16,0.73,-0.04,12.92,58.73,24.61
-0.31,0.73,-0.15,28.44,48.66,39.82
-0.55,0.83,-0.26,32.83,22.14,43.55
-0.82,1,-0.25,19.08,-13.62,37.7
-0.85,1.07,-0.46,12.22,-36.78,22.18
-0.81,1.01,-0.5,-4.37,-46.98,19.98
-0.84,1.12,-0.33,-28.34,-37.63,12.82
-0.79,1.52,-0.44,-5.94,-36.83,26.03
-0.26,1.35,0.37,-58.47,-76.4,29.99
0.63,0.55,0.08,10.21,-38.82,31.89
0.86,1.02,-0.27,-11.75,21.44,64.81
0.19,1.18,-0.15,-31.96,60.27,90.4
-0.11,0.96,-0.08,-30.94,12.17,90.59
-0.36,0.8,-0.17,-18.37,-28.59,69.81
-0.05,0.92,-0.26,-14.53,-45.84,63.69
0.24,0.95,-0.27,-11.47,-23.62,54.33
0.28,0.93,-0.3,-12.67,15.71,49.5
0.05,0.98,-0.24,-16.89,50.34,48.38
-0.09,0.99,-0.17,-19.21,49.44,47.23
-0.08,0.92,-0.17,-17.47,33.68,48.01
-0.04,0.91,-0.23,-12.7,20.76,47.01
-0.05,0.94,-0.22,-9.25,8.76,45.21
-0.04,0.95,-0.19,-8.27,-2.9,46.78
-0.01,0.95,-0.18,-6.82,-8.91,46.9
0.03,0.95,-0.15,-5.72,-5.57,44.9
0,0.96,-0.13,-6.07,4.91,42.11
0.01,0.96,-0.1,-5.51,12.24,38.32
0.05,0.95,-0.14,-2.29,13.17,35.4
0.03,0.96,-0.18,0.25,15,34.5
0.04,0.97,-0.21,-1.32,17.47,35.23
0.1,0.99,-0.21,-4.12,18.48,37.76
0.11,1,-0.18,-5.06,25.75,36.92
0.13,1,-0.24,-4.78,37.22,34.79
0.13,1.06,-0.22,-7.47,65.53,25.5
-0.03,1.05,-0.19,-11.71,72.31,20.16
-0.04,1.09,-0.17,-16.31,68.76,14.56
-0.06,1.06,-0.21,-19.34,63.04,12.15
-0.13,1.36,-0.28,-15.6,63.26,1.88
-0.2,1.04,-0.27,-23.45,72.57,-11.27
-0.26,1.04,-0.09,-30.18,79.88,-43.95
-0.27,1.06,0.16,-43.46,104.22,-84.33
-0.26,0.82,0.14,-36.13,110.12,-120.25
-0.32,0.59,-0.14,-10.79,70.47,-145.32
-0.28,0.79,-0.2,11.51,14.68,-153.24
-0.05,1.32,-0.21,33.54,2.63,-152.86
0.11,1.51,-0.26,30.33,9.2,-139.91
0.24,1.24,-0.22,39.37,14.47,-129.89
0.07,1.17,-0.08,48.6,-5.28,-128.5
-0.01,1.18,-0.13,59.96,-22.54,-108.34
-0.1,1.06,-0.13,62.44,-44.18,-92.14
-0.07,0.96,-0.05,62.76,-76.33,-80.05
0.09,0.94,-0.1,56.89,-86.88,-70.99
0.18,0.93,-0.08,52.05,-75.27,-53.92
0.29,0.94,-0.1,44.34,-50.05,-44.9
0.3,0.86,-0.12,30.82,-6.24,-31.93
0.24,0.81,-0.05,16.42,13.24,-13.12
0.11,0.81,-0.04,5.87,27.98,5.15
-0.08,0.8,-0.05,-0.56,44.2,25.25
-0.31,0.76,-0.05,11.69,31.66,47.15
-0.58,0.76,-0.19,29.79,-12.89,63.24
-0.7,0.92,-0.3,25.9,-49.69,64.19
-0.69,1.09,-0.35,16.18,-75.54,54.5
-0.7,0.95,-0.48,4.79,-87.75,44.31
-0.78,0.87,-0.42,-10.28,-92.25,33.11
-0.82,0.94,-0.23,-8.19,-94.9,26.13
-0.74,1.48,-0.24,8.34,-109.35,38.85
-0.16,1.23,-0.55,-8.77,-146.39,25.85
0.49,0.83,0.2,-14.29,-114.82,38.61
0.62,0.8,-0.12,4.86,-12.04,57.63
0.38,0.99,-0.18,-9.31,15.37,81.85
-0.16,1.03,-0.15,-11.42,5.32,91.27
-0.17,0.95,-0.22,-13.01,-37.58,70.73
0.12,0.91,-0.22,-14.79,-34.79,71.66
0.02,0.87,-0.21,-11.64,-24.73,63.08
0.1,1,-0.24,-11.07,-4.09,54.11
0.18,0.96,-0.21,-12.55,21.9,49.69
-0.02,0.97,-0.19,-15.27,27.87,49.09
-0.12,0.95,-0.22,-14.96,10.95,51.13
-0.03,0.94,-0.21,-13.21,-2.15,51.06
-0.03,0.94,-0.14,-12.7,-5.11,47.21
-0.03,0.95,-0.16,-11.67,-11.35,46.02
0.03,0.96,-0.13,-12.01,-14.1,44.63
0.04,0.94,-0.14,-9.05,-9.43,42.21
0.08,0.96,-0.12,-7.9,-6.13,40.61
0.11,0.99,-0.12,-8.02,2.3,41.39
0.12,0.98,-0.1,-8.96,3.83,42.98
0.14,1.01,-0.11,-8.85,7.19,44.51
0.1,1.02,-0.07,-8.97,8.34,44.92
0.13,1.08,-0.09,-6.22,7.79,46.92
-0.01,1.09,-0.1,-8.15,12.63,47.09
0,1.07,-0.17,-7.25,16.53,48.21
-0.05,1.09,-0.2,-12.74,25.04,45.27
-0.21,1.07,-0.28,-19.37,29.19,36.07
-0.23,1.04,-0.29,-26.69,21.66,23.5
-0.16,1.05,-0.3,-28.79,22.14,12.82
-0.19,1.22,-0.27,-20.73,38.29,-4.01
-0.19,1.02,-0.12,-27.75,69.24,-22.7
-0.25,0.99,-0.05,-23.15,95.38,-62.97
-0.25,0.96,0.11,-36.95,113.65,-98.38
-0.2,0.75,0.02,-14.31,102.03,-127.98
-0.25,0.83,-0.2,16.23,72.29,-143.81
-0.09,1.24,-0.16,33.63,36.41,-142.77
0.05,1.32,-0.09,39.13,29.35,-130.2
0.06,1.16,-0.08,46.25,16.63,-120.51
0.03,1.18,-0.03,56.24,-17.27,-116
-0.05,1.18,-0.06,60.74,-43.3,-106.08
-0.06,1.05,-0.06,59.98,-65.56,-96.85
0.05,1.01,-0.02,61.89,-82.6,-88.34
0.14,1.05,-0.06,60.18,-80.16,-81.6
0.22,1.02,0,50.06,-55.57,-79.07
0.26,0.96,0.02,44.25,-20.98,-67.1
0.33,0.94,-0.02,31.06,16.64,-59.24
0.25,0.82,0.01,21.73,42.46,-42.08
0.1,0.83,-0.01,11.45,62.24,-25.17
-0.02,0.8,0.02,1.79,65.67,-5.97
-0.15,0.72,-0.05,8.82,57.58,16.56
-0.36,0.68,-0.28,36.28,43.05,36.04
-0.54,0.82,-0.42,36.83,12.6,50.97
-0.72,1.04,-0.33,25.98,-14.84,41.68
-0.94,1.12,-0.36,6.94,-68.82,22.95
-0.95,0.94,-0.54,-6.73,-72.27,12.77
-0.69,0.91,-0.4,-33.44,-60.03,17.11
-0.06,1.11,-0.39,-27.02,-88.42,30.1
0.38,1.29,0.7,-38.6,-10.21,71.28
-0.64,1.1,-0.51,29.05,10.77,32.82
0.27,1.01,-0.28,-11.66,-63.95,47.16
0.8,0.89,0.08,-12.12,-27.89,67.87
0.2,1.03,-0.26,-6.53,-18.2,73.93
-0.13,0.97,-0.34,-10.11,-24.98,63.25
0.25,0.93,-0.19,-10.86,-30.61,59.37
0.24,0.95,-0.1,-11.69,8.46,59.47
-0.02,0.92,-0.15,-9.69,34.05,50.02
-0.02,0.97,-0.21,-12.11,42.3,44.64
-0.05,0.95,-0.23,-14.18,44.82,41.79
-0.12,0.93,-0.26,-14.53,36.92,39.27
-0.12,0.93,-0.28,-10.59,26.04,39.32
-0.13,0.94,-0.23,-8.26,13.89,40.7
-0.09,0.96,-0.18,-7.63,4.34,40.78
-0.02,0.95,-0.16,-6.02,2.5,40.41
0.02,0.97,-0.16,-4.71,9.79,40.76
0.05,0.97,-0.17,-5.53,21.08,40.08
0.02,0.97,-0.18,-5.2,29.99,39.36
0.06,0.99,-0.2,-5.39,30.12,40.49
0.05,1.02,-0.19,-5.12,27.24,41.6
0.06,1.03,-0.17,-5.79,25.4,41.95
0.17,0.91,-0.28,0.21,20.85,43.89
0.16,1.06,-0.18,0.95,54.26,35.79
0.11,0.99,-0.16,-6.53,85.69,36
-0.05,1.08,-0.17,-15.76,107.02,29.69
-0.22,1.07,-0.21,-23.18,87.77,26.1
-0.18,1.03,-0.23,-24.73,63.1,24.94
-0.04,1.06,-0.17,-24.42,53.75,24.11
0.06,1.03,-0.26,-28.34,69.24,18.88
-0.09,1.2,-0.37,-22.39,88.08,4.92
-0.26,1.14,-0.26,-27.46,96.81,-15.25
-0.24,0.98,-0.04,-23.39,97.76,-56.75
-0.28,0.89,0.17,-33.95,110.62,-98.28
-0.27,0.66,0.05,-15.18,72.61,-122.24
-0.29,0.8,-0.1,3.34,35.72,-139.11
-0.07,1.22,-0.15,20.62,10.98,-144.41
0.18,1.38,-0.07,27.55,33.67,-142.18
0.31,1.21,0.02,30.82,69.07,-136.25
0.3,1.09,0.03,49.3,79.6,-130.85
-0.04,1.24,-0.01,64.53,63.92,-122.15
-0.25,1.27,0.04,59.3,9.24,-101.6
-0.16,1.06,0,54.98,-49.1,-87.95
-0.1,0.96,0.01,52.57,-76.78,-80.21
0.11,0.95,0.03,44.03,-73.69,-73.03
0.3,0.93,0.08,38.89,-46.66,-63.22
0.36,0.91,0.06,35.53,10.44,-59.85
0.32,0.87,0.03,17.32,63.03,-51.92
0.23,0.84,-0.01,3.27,103.34,-37.53
0.01,0.78,-0.08,-0.93,123.15,-21.63
-0.21,0.76,-0.13,-1.71,121.27,-3.79
-0.25,0.76,-0.23,5.24,112.86,12.53
-0.31,0.73,-0.39,10.83,95.96,23.77
-0.38,0.86,-0.41,2.69,69.89,32.56
-0.5,1.03,-0.36,-8.96,39.21,32.78
-0.72,1.02,-0.3,-23.4,14.5,26.53
-0.75,0.96,-0.44,-18.35,3.94,19.02
-0.76,0.96,-0.39,-15.81,-4.13,12.79
-0.58,1,-0.24,-29.29,-5.31,8.28
-0.44,1.64,-0.33,-26.2,-8.93,24.47
-0.02,0.96,0.11,-27.24,7.91,56.03
-0.39,0.96,-0.45,-10.37,-56.93,27.77
0.55,0.89,-0.06,-17.47,-48.89,53.57
0.6,0.9,-0.01,-17.24,3.06,66.92
-0.03,0.99,-0.08,-14.11,11.95,64.74
-0.03,0.96,-0.19,-11.42,-13.52,55.03
0.33,0.96,-0.2,-11.49,-3.77,51.11
0.2,0.96,-0.27,-12.16,26.21,44.78
0.05,0.97,-0.26,-15.24,44.37,42.46
0,0.96,-0.24,-14.47,49.71,39.99
0.04,0.97,-0.22,-13.77,45.87,36.01
-0.04,0.91,-0.24,-11.53,40.76,37.4
-0.06,0.92,-0.27,-3.76,35.84,37.37
0,0.96,-0.22,-3.56,32.44,32.95
0,0.93,-0.21,-2.08,28.3,31.14
-0.04,0.95,-0.19,1.21,32.98,27.47
-0.03,0.92,-0.2,3.26,34.39,22.32
-0.04,0.96,-0.22,3.08,35.56,16.78
-0.07,0.95,-0.25,4.13,31.96,11.81
0.01,0.96,-0.25,4.53,27.66,8.18
0.07,0.97,-0.21,1.22,38.3,5.43
0.02,0.97,-0.19,-1.08,44.45,3.41
0.15,1.04,-0.18,-3.35,42.34,5.77
0.33,0.96,-0.45,5.98,39.83,11.25
0.14,1.11,-0.19,-1.76,90.73,11.17
0.09,1.06,-0.15,-2.95,94.95,12.31
0,1.05,-0.13,-8.22,92.05,11.05
-0.04,0.94,-0.18,-6.79,78.39,9.36
0.04,0.93,-0.3,-1.56,81.34,9.72
0.01,1.2,-0.3,0.5,103.1,0.97
0.02,1.06,-0.21,-4.46,125.82,-14.43
0.04,1.09,-0.03,-12.95,159.62,-41.27
-0.08,1.05,0.21,-27.95,200.15,-72.3
-0.05,1.02,0.21,-45.53,215.78,-97.35
-0.19,0.9,0.13,-50.15,204.27,-117.73
-0.23,0.81,0.05,-41.06,164.1,-131.47
0.05,0.96,-0.03,-22.43,129.9,-140.24
0,1.19,-0.1,-4.95,131.74,-141.54
-0.04,1.27,-0.09,5.71,141.15,-136.4
0.07,1.17,-0.03,13.18,123.69,-130.13
0.03,1.12,-0.02,26.78,98.54,-122.82
-0.08,1.13,0.02,30.02,70.61,-111.27
-0.14,1.05,-0.01,33.89,49.69,-100.67
-0.22,0.97,-0.01,30.33,17.75,-92.84
-0.14,0.97,-0.01,22.28,-2.39,-82.38
-0.06,0.93,0,16.33,-12.53,-66.96
0.02,0.89,-0.03,9.69,-6.27,-58.34
0.11,0.85,-0.04,-2.57,21.77,-50.15
0.15,0.77,-0.06,-11.8,53.42,-35.25
0.02,0.76,-0.11,-15.19,76.42,-17.51
-0.11,0.74,-0.15,-18.52,90.25,-5.02
-0.15,0.7,-0.18,-18.73,97.74,7.08
-0.27,0.69,-0.16,-14.17,95.37,23.45
-0.51,0.77,-0.2,-7.51,77.21,31.36
-0.83,0.86,-0.27,-2.89,38.64,28.82
-1.07,0.99,-0.41,-7.58,-21.57,21.17
-0.91,0.94,-0.43,-15.37,-40.82,11.52
-0.69,0.91,-0.37,-30.5,-48.37,6.95
-0.55,1.18,-0.04,-22.17,-26.52,-0.07
-0.32,1.58,-0.26,-32.21,-19.67,9.02
0.06,0.69,-0.12,18.11,6.92,32.5
0.12,0.9,0.1,-0.04,-10.76,32.6
0.43,1.1,-0.05,-13.85,22.7,68.26
-0.01,1.03,-0.08,-21,-2.04,85.24
-0.24,0.88,-0.11,-14.31,-16.38,73.68
-0.08,0.86,-0.31,-6.06,-29.24,67.54
0.08,0.93,-0.2,-5,-19.54,58.05
0.01,0.96,-0.16,-5.11,-5.37,47.18
-0.03,0.96,-0.19,-6.92,1.04,42.53
-0.1,0.93,-0.17,-6.82,-3.44,40.27
-0.02,0.96,-0.15,-5.7,-11.84,40.22
0.1,0.98,-0.14,-6.26,-8.4,42.35
0.09,0.96,-0.14,-8.62,3.93,44.03
0.07,1,-0.19,-9.57,10.53,44.29
0.06,0.98,-0.17,-10.39,12.92,46.48
0.05,0.95,-0.14,-9.66,19.79,46.95
0.02,0.95,-0.13,-8.48,21.76,46.74
-0.01,0.97,-0.11,-6.44,18.36,48.05
-0.01,0.94,-0.13,-3.73,16.34,46.35
0.01,0.95,-0.17,-1.18,16.55,42.53
0,0.99,-0.17,-1.36,17.75,39.82
-0.03,0.92,-0.26,-11.75,18.69,52.47
0.07,0.96,-0.19,-12.14,15.8,52.25
0,0.92,-0.19,-12.14,10.26,53.83
0.11,0.94,-0.2,-10.98,3.24,58.05
0.23,0.96,-0.15,-8.47,13.12,58.84
0.16,0.95,-0.16,-7.55,30.7,56.4
0.08,0.94,-0.17,-3.06,31.95,51.59
0.07,0.97,-0.17,-0.03,27.2,53
0.07,0.96,-0.16,2.2,28.98,50.79
0.04,0.96,-0.17,4.3,43.73,41.16
-0.02,1.02,-0.23,3.51,54.3,33.34
-0.04,1.07,-0.19,3.63,47.98,29.76
0.22,0.95,-0.45,14.6,48.99,28.32
0.06,1.11,-0.33,6.7,122.79,18.31
-0.25,1,-0.33,-0.76,125.78,10.12
-0.33,1.05,-0.22,-8.23,105.79,1.26
-0.26,1.07,-0.22,-16.45,88.19,-4.7
-0.19,1.01,-0.17,-20.95,66.34,-9.64
-0.08,1.28,-0.16,-13.67,68.47,-19.55
-0.08,1.1,0.12,-23.4,131.24,-44.08
-0.07,1.13,0.24,-41.77,196.43,-95.4
-0.3,0.9,0.08,-43.11,211.96,-143.69
-0.27,0.65,-0.17,-14.29,172.27,-167.24
-0.14,1.12,-0.1,12.12,143.21,-171.96
0.02,1.65,-0.04,26.5,160.08,-161.2
0.07,1.33,-0.1,26.1,150.6,-145.11
-0.15,1.09,-0.01,42.53,99.18,-136.15
-0.24,1.11,0.15,50.95,23.44,-119.68
-0.05,0.97,0.06,60.98,-29.53,-104.7
-0.07,0.95,-0.05,60.68,-52.15,-88.59
-0.01,0.99,-0.01,49.76,-62.81,-81.26
0.18,0.89,0.01,44.2,-58.56,-74.31
0.32,0.83,0.01,40.84,-34.32,-68.05
0.31,0.91,-0.05,25.53,10.89,-53.32
0.39,0.79,-0.06,17.82,54.76,-37.12
0.2,0.72,-0.08,12.17,76.08,-8.89
0.05,0.69,-0.08,6.76,81.16,15.69
-0.13,0.68,-0.05,5.37,70.19,31.78
-0.56,0.75,-0.1,11.97,10.68,55.99
-0.7,0.92,-0.25,-7.15,-33.77,65.81
-1,1.04,-0.25,-3.36,-56.86,55.05
-1.06,1.16,-0.49,-2.92,-89.92,36.23
-1.02,1.13,-0.45,-29.79,-64.98,20.46
-0.58,1.56,-0.21,-35.86,-24.11,19.97
-0.04,1.57,-0.13,-11.42,0.94,6.74
0.28,0.58,0.39,15.43,-13.27,10.55
0.71,0.77,-0.21,-3.76,23.98,44.28
0.08,1.01,-0.1,-25.48,-9.68,90.49
0.04,1.07,-0.21,-16.62,-55.2,89.33
0.13,0.82,-0.31,-14.17,-43.57,74.31
0.43,0.94,-0.2,-12.32,-1.61,66.95
0.01,0.97,-0.22,-14.08,27.31,57.21
-0.05,0.94,-0.21,-12.96,24.42,57.62
-0.03,0.95,-0.16,-14.26,12.99,60.14
-0.05,0.94,-0.18,-15.52,-4.47,61.5
0.17,0.94,-0.2,-14.4,-8.44,63.74
0.21,0.97,-0.2,-12.17,11.3,62.69
0.12,0.97,-0.19,-11.44,26.69,60.42
0.1,0.99,-0.15,-11.78,27.34,60.53
0.08,0.97,-0.14,-8.98,26.07,60.56
0.14,0.99,-0.12,-6.12,26.77,60.86
0.19,1.04,-0.15,-5.38,39.18,59.18
0.09,1.05,-0.16,-7.08,52.42,56
0.1,0.99,-0.34,3.98,53.27,51.43
-0.07,1.07,-0.3,1.05,86.33,47.68
-0.24,1,-0.28,-3.81,99.98,39.94
-0.33,1.09,-0.23,-13.58,90.63,25.44
-0.38,1.04,-0.34,-22.83,73.89,11.67
-0.23,1.08,-0.23,-30.36,47.74,5.99
0.11,1.11,-0.2,-34.98,56.04,3.43
0.02,1.51,-0.21,-30.6,104.69,-14.59
-0.25,0.88,0.04,-35.85,153.19,-46.89
-0.38,1,0.03,-38.35,173.01,-104.55
-0.42,0.64,-0.14,-21,135.62,-145.53
-0.44,0.58,-0.25,13.7,79.35,-163.47
-0.16,1.24,-0.23,41.56,48.37,-161.09
0.09,1.68,-0.09,43.08,49.53,-147.69
0.15,1.19,-0.14,56.32,28.85,-140.31
0.06,1.21,-0.01,68,17.34,-131.31
0.01,1.23,0,77.41,-4.44,-129.69
-0.09,1.15,-0.08,78.68,-33.66,-111.87
-0.07,1.1,-0.06,72.38,-64.31,-96.47
0.1,1.02,0.01,64.53,-88.89,-87.33
0.29,0.88,0,58.14,-92.17,-74.58
0.38,0.86,-0.09,49.69,-68.13,-64.52
0.45,0.87,-0.01,29.73,-13.68,-46.16
0.53,0.68,0.03,19.02,35.43,-20.14
0.36,0.7,-0.03,8.81,66.64,4.93
0.22,0.66,-0.04,15.75,95.03,31.14
-0.3,0.65,-0.05,29.04,59.16,48.79
-0.69,0.78,-0.32,26.15,24.99,70.95
-0.89,1.02,-0.42,21.68,13.43,63.53
-1.29,1.35,-0.74,17.85,-75.58,45.06
-1.43,1.13,-0.64,-22.8,-126.02,24.97
-0.82,1.24,-0.26,-36.33,-129.25,24.75
0.03,1.72,-0.68,-32.88,-136.52,46.52
0.11,1.15,0.08,4.18,-110.05,40.96
1.32,0.81,0.22,-5.32,-43.27,41.35
0.89,0.83,-0.11,-32.34,37.36,89.32
0.08,1.18,-0.2,-21.73,13.79,115.65
-0.19,0.89,-0.47,-25.78,-19.55,85.23
0.17,0.86,-0.19,-23.95,-37.04,83.52
0.09,0.91,-0.18,-20.39,-20.71,77.04
0.15,0.93,-0.21,-15.08,7.68,74.31
0.01,0.93,-0.12,-15.95,21.73,64.15
-0.11,0.93,-0.16,-15.59,13.26,57.96
-0.02,0.9,-0.21,-11.52,0.11,55.64
0.08,0.96,-0.16,-6.84,2.44,53.54
0.13,0.96,-0.14,-4.43,-0.73,50.86
0.15,1,-0.12,-3.53,-1.46,52.04
0.24,1.09,-0.11,-5.38,9.22,56.42
0.29,1.11,-0.08,-6.98,19.99,60.74
0.2,1.06,-0.17,-4.76,36.53,60.66
0.04,1.08,-0.16,-6.52,63.95,56.27
-0.12,0.95,-0.23,-2.21,75.81,47.62
-0.27,0.99,-0.34,-1.19,93.44,37.92
-0.36,0.99,-0.43,-8.79,95.91,25.56
-0.36,0.99,-0.36,-20.68,87.53,12.82
-0.21,0.99,-0.32,-29.58,68.87,4.83
-0.17,1.29,-0.22,-21.35,52.36,-6.77
-0.04,1.11,0.06,-25.98,92.34,-31.53
-0.22,1.14,0.2,-29.16,138.46,-82.82
-0.27,0.91,0.25,-36.89,161.22,-133.92
-0.19,0.56,-0.13,-2.75,135.47,-167.99
-0.24,0.91,-0.2,24.77,101.34,-176.21
-0.1,1.58,-0.05,36.47,111.65,-160.31
0.09,1.33,-0.15,44.05,99.66,-144.58
-0.04,1.11,0.01,53,77.69,-135.52
-0.01,1.16,0.1,63.4,32.62,-127.77
-0.11,1.03,0.01,72.89,0.62,-117.43
-0.16,1.06,-0.05,67.96,-27.98,-100.24
0,1.03,0.03,60.21,-56.55,-87.91
0.06,0.9,0.06,55.19,-76.05,-73.08
0.3,0.81,0.06,48.43,-78.18,-62.49
0.45,0.87,-0.02,30.07,-34.66,-43.72
0.57,0.7,-0.04,24.49,30.56,-11.5
0.59,0.73,-0.13,8.23,106.08,14.61
0.22,0.76,-0.04,14.96,123.21,25.55
-0.4,0.73,-0.15,26.64,112.95,42.96
-0.73,0.84,-0.41,26.77,66.9,67.47
-0.85,1.05,-0.39,8.47,7.99,68.76
-1.25,1.28,-0.41,-0.28,-61.79,52.61
-1.31,0.97,-0.58,-1.99,-132.4,38.26
-0.92,1.36,-0.43,-21.65,-139.65,34.88
-0.21,1.71,-0.45,-44.67,-155.63,53.85
0.25,1.23,0.47,-20.28,-109.27,33.43
1.14,0.82,0.15,-5.22,-5.47,34.06
1,0.67,-0.27,-22.31,57.27,64.1
0.2,1.18,-0.26,-21.56,56.34,96.27
-0.26,1.01,-0.3,-29.93,3.3,76.47
-0.03,0.87,-0.21,-26.26,-45.61,70.15
0.25,0.92,-0.16,-23.31,-33.05,64.89
0.36,0.92,-0.25,-16.01,22.48,63.3
0.13,0.97,-0.18,-17.96,64.37,55.74
-0.33,0.95,-0.16,-19.76,45.04,49.7
-0.25,0.88,-0.25,-15.81,5.87,49.85
0.03,0.92,-0.24,-10.72,2.58,49.24
-0.07,0.93,-0.15,-9.5,6.66,43.65
0.01,0.95,-0.1,-6.89,3.26,42.78
0.08,0.96,-0.09,-5.22,10.22,44.62
0.14,0.99,-0.06,-5.21,15.34,46.66
0.14,1.02,-0.08,-6.18,19.03,47.86
0.08,1.02,-0.08,-7.76,24.94,50.07
0.15,0.94,-0.23,0.06,22.24,50.55
0.19,1.15,-0.15,-1.22,58.95,48.59
-0.06,1.1,-0.3,0.08,85.36,47.61
-0.24,1.11,-0.32,-13.24,78.18,39.76
-0.36,1.02,-0.45,-13.32,57.38,23.77
-0.2,1.03,-0.41,-21.27,46.42,5.1
-0.04,1.4,-0.14,-29.34,64.84,-24.89
0.08,0.87,0.18,-23.82,135.12,-65.42
-0.19,0.93,0.23,-20.21,210.55,-106.84
-0.32,0.75,0.16,-32.34,220.21,-132.52
-0.48,0.69,-0.05,-13.38,190.67,-161.95
-0.11,1.13,-0.16,13.92,141.32,-161.37
0.03,1.44,-0.14,25.33,154.37,-155.52
-0.13,1.21,-0.1,35.21,129.38,-133.62
-0.15,1.06,0.02,47.97,66.81,-125.17
-0.14,1.05,0.09,59.09,5.83,-112.63
-0.1,1.1,-0.01,66.15,-28.73,-96.19
0,1.08,0.01,58.12,-42.94,-86.37
0.08,1.06,0,53.54,-53.87,-80.45
0.13,1.01,-0.02,43.91,-58.93,-63.02
0.29,0.91,0.05,34.48,-39.72,-45.54
0.4,0.81,0.04,25.96,-3.08,-33.49
0.47,0.71,-0.05,18.69,56.98,-10.36
0.36,0.64,-0.13,16.96,102.93,15.9
0.01,0.68,-0.11,24.44,120.25,37.74
-0.43,0.66,-0.09,30.74,58.4,53.29
-0.83,0.75,-0.24,25.47,2.4,58.79
-1.3,0.95,-0.3,29,-31.66,40.4
-1.26,1.18,-0.61,23.76,-117.67,18.93
-1.07,1.06,-0.57,-5.39,-136.73,4.04
-0.55,1.06,-0.34,-21.93,-98.5,-1.15
-0.17,1.91,0.06,-6.06,-107.95,23.26
0.34,0.89,0.47,11,-50.1,28.31
0.26,1.28,-0.14,-11.85,-44.1,30.27
1.14,0.84,-0.04,-2.37,-36.37,79.36
0.51,0.93,-0.1,-15.04,3.91,91.98
0.03,1.11,-0.34,-16.3,5.32,91.73
0.04,0.9,-0.24,-21.66,-11.18,77.64
0.2,0.91,-0.2,-18.19,-5.67,74.79
0.05,0.94,-0.22,-16.82,21.85,73.78
0.09,0.94,-0.25,-15.09,36.28,69.02
-0.02,0.98,-0.18,-17.99,35.44,65.21
-0.06,0.93,-0.2,-13.97,23.8,62.73
-0.12,0.88,-0.23,-7.21,11.78,56.21
-0.04,0.93,-0.22,-1.22,3.37,51.23
0.06,0.98,-0.22,-0.18,-3.79,50.56
0.12,1.01,-0.17,-1.65,0.02,53.24
0.11,1,-0.13,-2.71,14.92,49.43
0.05,0.99,-0.12,-2.4,35.27,40.82
0.02,1.03,-0.15,-0.38,42.02,36.1
0.1,0.95,-0.31,3.56,35.36,39.16
0.09,1.03,-0.26,3.21,74.93,33.44
-0.12,1,-0.29,-3.12,87.78,29.08
-0.16,1.05,-0.2,-8.53,68.96,26.4
-0.05,1.1,-0.23,-12.16,63.98,22.86
-0.09,1.05,-0.21,-20.05,62,19.49
0.01,1.06,-0.18,-24.22,53.5,18.28
0.05,1.39,-0.26,-17.96,79.72,7.95
-0.05,1.08,0.01,-35.79,141.11,-15.5
-0.24,1.02,0.09,-41.87,190.52,-65.83
-0.39,0.93,0.13,-55.54,205.85,-119.01
-0.45,0.53,-0.22,-19.89,164.28,-159.65
-0.56,0.62,-0.34,4.75,87.33,-164.02
-0.34,1.25,-0.24,32.02,37.28,-161.4
0.01,1.54,-0.17,45.86,22.34,-144.82
0.15,1.3,-0.16,52.44,8.18,-134.47
0.12,1.26,-0.07,59.76,6.47,-127.47
-0.07,1.17,-0.04,67.28,-14.07,-120.82
-0.09,1.03,-0.07,69.99,-40.69,-104.35
-0.02,1.07,-0.03,63.87,-55.63,-91.51
0.09,1.03,-0.01,55.55,-70.06,-78.62
0.13,0.94,0.02,49.35,-85.48,-63.85
0.24,0.85,0.02,43.52,-84.08,-59.76
0.43,0.87,0,23.11,-39.97,-55.78
0.48,0.79,0.09,9.41,19.35,-38.34
0.43,0.77,0.01,0.01,73.02,-9.89
0.21,0.66,0,2.95,114.32,10.34
-0.3,0.65,-0.07,29.36,86.69,38.57
-0.68,0.76,-0.42,33.31,39.97,57.69
-0.77,1,-0.43,12.6,8.06,62.63
-1.16,1.34,-0.5,14.14,-66.56,49.64
-1.42,1.04,-0.61,-23.05,-109.57,28.84
-0.92,1.09,-0.43,-30.15,-110.89,24.27
-0.12,1.63,-0.68,-26.89,-129.11,45.78
0.56,0.97,0.52,-6.07,-62.08,36.56
0.54,0.84,-0.15,17.89,28.34,35.67
0.44,1.18,-0.08,-12.52,21.76,81.09
0.3,1.01,0.1,-25.39,-14.53,94.69
-0.11,0.91,-0.22,-16.45,-37.78,87.36
0.14,0.89,-0.32,-13.95,-36.79,79.51
0.41,1.02,-0.18,-17.58,-10.89,74.97
0.1,0.91,-0.22,-18.21,15.52,73.69
-0.01,0.96,-0.2,-18.42,35.57,69.89
-0.06,0.94,-0.18,-20.05,35.59,63.33
-0.12,0.89,-0.22,-18.2,18.24,61.29
-0.01,0.91,-0.24,-11.37,12.85,58.56
-0.07,0.95,-0.22,-9.57,15.44,50.24
-0.01,0.93,-0.23,-6.28,5.22,46.4
0.09,0.97,-0.18,-2.4,-2.85,49.18
0.21,1.01,-0.11,-1.31,8.1,54.83
0.26,1.07,-0.07,-4.08,27.11,55.67
0.21,1.05,-0.06,-6.52,46.78,52.47
0.1,1.07,-0.11,-6.27,54.56,52.15
0.04,1.02,-0.23,-3.02,57.44,54.1
-0.12,1.01,-0.26,-7.29,76.04,46.93
-0.2,1.02,-0.29,-13.15,72.03,40.22
-0.17,1.02,-0.27,-15.98,65.3,32.06
-0.12,1.04,-0.24,-20.1,72,22.64
-0.1,1,-0.2,-27.06,75.39,11.52
-0.11,1.01,-0.23,-30.07,81.73,0.98
-0.21,1.48,-0.24,-26.83,98.71,-23.61
-0.42,0.94,-0.03,-35.98,142.1,-56.69
-0.48,0.98,0.04,-37.95,142.76,-114.3
-0.48,0.52,-0.19,-11.24,100.02,-151.77
-0.45,0.57,-0.31,25.18,36.16,-162.73
-0.2,1.36,-0.23,47.11,14,-161.56
0.15,1.78,-0.12,49.58,18.6,-144.56
0.22,1.25,-0.13,58.69,11.85,-137.9
0.09,1.26,0,67.93,9.32,-132.4
0.07,1.26,0.05,77.54,-6.34,-127.15
0,1.17,-0.06,80.3,-11.65,-110.91
-0.07,1.11,0,72.55,-44.27,-94.18
0.1,0.99,0.08,65.45,-76.02,-87.44
0.24,0.87,0.06,61.5,-88.44,-83.67
0.3,0.85,0.02,51.07,-68.83,-69.47
0.44,0.88,0.01,26.59,-19.25,-50.61
0.53,0.75,0.05,14.14,31.24,-28.2
0.4,0.72,0.04,5.89,68.86,-1.92
0.25,0.68,-0.03,13.35,106.26,22.26
-0.23,0.68,-0.11,30.61,93.42,48.26
-0.63,0.87,-0.4,23.51,45.18,63.42
-0.84,1.04,-0.34,21.6,27.14,61.63
-1.33,1.41,-0.62,8.34,-47.2,42.31
-1.36,1.01,-0.68,-19.66,-85.91,31.29
-0.75,1.06,-0.4,-40.79,-77.31,20.1
0.11,1.83,-0.34,-17.27,-74.53,40.45
-0.03,0.98,0.38,-18.72,-16.7,34.07
0.35,0.76,-0.17,15.69,11.03,25.45
0.68,1.03,-0.05,-14.12,12.51,69.05
0.2,0.97,-0.01,-19.44,-17.9,92.06
-0.21,0.96,-0.14,-13.18,-23.92,77.51
0.19,0.91,-0.3,-11.27,-27.69,66.63
0.33,0.97,-0.16,-11.62,4.45,60.84
-0.08,0.97,-0.12,-10.87,40.5,58.3
0.38,0.94,-0.51,-12.44,48.56,53.61
0.03,0.99,-0.42,-14.11,49.77,54.92
-0.32,0.74,-0.01,-12.5,8.43,63.04
-0.98,1.25,0.57,-6.07,156.31,64.34
1.83,0.85,-1.54,-6.82,-7.43,54.42
0.09,0.94,-0.21,-8.61,34.63,52.69
0.01,0.92,-0.14,-3.31,28.66,57.73
0.09,0.96,-0.16,2.21,23.58,53.47
0.08,1.01,-0.21,3.56,34.18,49.67
0.18,1.1,-0.2,1.02,50.54,46.98
0.07,1.15,-0.12,-1.76,70.4,42.38
0.11,1.01,-0.28,5.77,96.47,35.78
0.01,1.06,-0.28,2.5,125.37,27.71
-0.23,0.96,-0.36,-3.34,122.65,23.64
-0.22,1.01,-0.25,-7.82,112.76,16.68
-0.12,1,-0.26,-17.44,113.46,6.34
-0.14,0.95,-0.2,-22.76,100.73,-1.14
-0.04,1.42,-0.25,-14.6,98.33,-13.65
0.02,1.12,-0.05,-24.51,147.99,-39.31
-0.27,1.21,0.16,-36.05,194.55,-92.44
-0.27,0.79,0.21,-41.08,210.05,-136.53
-0.33,0.52,-0.15,-16.09,174.28,-173.05
-0.37,0.92,-0.14,9.5,106.07,-174.06
-0.13,1.58,-0.07,21.08,97.58,-164.58
0.06,1.36,-0.12,24.11,91.9,-145.15
0.06,1.09,-0.05,37.44,72.19,-135.88
0.02,1.13,0.08,47.52,36.48,-130.85
0.07,1.13,-0.01,62.92,17.37,-120.6
-0.03,1.07,-0.12,61.37,13.6,-109.33
-0.01,1.09,0.01,51.92,-8.61,-97.08
0.14,0.88,0.02,51.09,-23.12,-86.63
0.2,0.82,-0.02,42.78,-25.22,-69.67
0.35,0.83,-0.03,36.47,-10.87,-57
0.35,0.8,-0.09,29.56,22.24,-36.15
0.33,0.69,-0.11,22.08,51.34,-4.12
0.34,0.65,-0.14,21.72,86.24,21.13
0.06,0.68,-0.15,35.25,108.81,43.93
-0.41,0.73,-0.27,37.32,75.36,62.24
-0.75,0.84,-0.49,19.77,51.95,63.12
-1.29,1.13,-0.62,30.71,-11.34,56.41
-1.52,1.17,-0.73,-3.2,-94.62,35.73
-1.14,0.95,-0.6,-21.93,-132.83,22.1
-0.44,0.82,-0.49,-24.81,-140.7,22.41
0.56,2,0.83,-14.23,-125.18,89.11
-0.47,1,0,14.95,-14.62,43.31
-0.45,1.37,-0.55,-6.49,-123.95,34.58
1.89,0.56,0.15,-0.15,-91.75,63.44
0.9,0.92,-0.23,-6.56,52.99,80.05
-0.38,1.19,-0.36,-17.51,46.68,80.58
0.11,0.94,-0.24,-17.87,-25.76,58.95
0.13,0.84,-0.12,-13.79,-13.33,63.86
0.14,0.9,-0.23,-7.55,16.47,57.55
0.24,0.98,-0.25,-10.84,52.34,50.96
-0.08,0.95,-0.23,-13.95,55.96,45.56
-0.08,0.95,-0.24,-9.78,30.05,48.12
0.1,0.94,-0.24,-5.67,24.37,50.59
0.07,0.95,-0.23,-5.89,33.34,48.92
0.11,0.99,-0.19,-5.32,32.68,49.39
0.14,0.99,-0.19,-4.06,31.99,53.18
0.15,1.03,-0.18,-3.79,39.84,55.28
0.14,1.05,-0.18,-5.5,56.37,52.9
0.14,1,-0.38,1.89,61.25,50.31
-0.09,1.04,-0.21,-5.34,83.57,44.72
-0.11,1.02,-0.2,-3.9,87.14,35.18
-0.13,1.06,-0.28,-6.18,93.11,28.64
-0.14,0.98,-0.36,-8.31,95.89,24.65
-0.15,1.02,-0.34,-12.76,106.95,15.9
-0.13,1.01,-0.31,-24.11,113.32,5.72
-0.09,0.97,-0.17,-27.64,130.9,-10.59
-0.23,1.4,0.01,-35.66,173.53,-38.85
-0.32,1.03,0.15,-43.14,216.29,-77.43
-0.45,1.02,0.01,-44.24,209.91,-135.45
-0.49,0.55,-0.26,-15.03,136.76,-167.64
-0.42,0.77,-0.15,9.32,87.32,-168.66
0.04,1.52,-0.12,33.34,88.82,-176.59
0.1,1.65,-0.05,35.53,96.49,-162.41
0.06,1.24,-0.02,46.57,70.85,-143.61
-0.03,1.19,0.11,57.36,35.09,-134.67
-0.04,1.14,0.09,70.58,1.09,-114.37
-0.04,1.06,-0.05,72.55,-29.25,-104.43
0.05,1.01,-0.01,65.6,-50.95,-95.92
0.22,0.99,0,52.52,-54.68,-90.94
0.31,0.84,0.02,44.77,-38.33,-79.18
0.39,0.87,-0.06,31.03,-6.24,-64.32
0.36,0.85,-0.06,19.37,38.31,-44.14
0.3,0.73,-0.01,15.59,56.66,-18.5
0.16,0.68,-0.08,10.56,73.27,6.89
-0.04,0.66,-0.11,15.28,79.68,29.37
-0.35,0.75,-0.18,21.82,43.18,46.85
-0.59,0.9,-0.31,5.89,7.24,60.75
-0.9,0.99,-0.3,-2.85,-28.65,49.34
-1.08,1.15,-0.5,3.63,-75.1,40.77
-1.17,1,-0.53,-10.19,-73.63,26.04
-0.8,1.01,-0.45,-34.99,-47.71,14.56
-0.2,1.9,0.07,-23.01,-34.89,36.09
-0.09,0.95,0.82,-31.27,-2.74,20.82
-0.34,0.94,-0.65,15.87,-12.81,20.34
0.62,0.89,-0.1,-13.47,-61.11,54.89
0.61,0.88,-0.05,-12.7,-28.69,77.73
0,1.06,-0.24,-8.37,-24.78,79.7
0.12,0.95,-0.29,-12.31,-36.24,62.99
0.41,0.98,-0.18,-13.52,-11.82,59.64
0.05,0.94,-0.18,-14.89,19.44,57.95
0.01,0.94,-0.2,-14.49,26.08,55.92
0.02,0.96,-0.23,-16.36,31.47,53.57
-0.18,0.89,-0.25,-16.49,20.05,54.02
-0.07,0.91,-0.25,-12.94,6.72,56.31
0.02,0.95,-0.22,-11.81,17.34,54.24
-0.1,0.91,-0.13,-10.22,23.76,53.21
-0.11,0.92,-0.07,-8.29,13.22,54.68
0.01,0.95,-0.11,-5.75,3.32,54.25
-0.01,0.92,-0.17,-3.72,15.28,49.99
-0.03,0.95,-0.21,-3.27,33.39,42.1
-0.04,0.97,-0.19,-1.58,34.75,35.01
0.08,1,-0.14,-0.9,34.95,36.73
0.16,1.09,-0.1,-1.06,47.65,40.26
0.42,1.07,-0.49,15.92,54.15,41.2
-0.02,1.22,-0.32,-5.69,133.34,37.8
-0.2,1.15,-0.26,-19.82,130.42,30.21
-0.36,1.03,-0.24,-27.88,99.49,16.28
-0.46,1.31,-0.31,-14.06,70.76,3.6
-0.26,1.15,-0.11,-21.61,93.11,-20.62
-0.26,1.15,0.05,-29.66,140.01,-66.55
-0.24,0.93,0.2,-49.07,186.65,-115.18
-0.27,0.66,-0.01,-32.67,188.52,-156.82
-0.45,0.8,-0.07,-12.4,142.58,-173.84
-0.03,1.27,-0.05,17.34,105.5,-174.42
-0.04,1.42,-0.13,30.42,113.15,-160.31
-0.03,1.17,-0.1,42.76,92.31,-144.42
0.01,1.14,-0.05,54.05,56.44,-137.2
-0.06,1.1,-0.09,64.82,14.98,-122.57
-0.17,1.05,-0.12,64.58,-18.2,-103.31
-0.05,0.98,-0.07,58.05,-56.21,-84.1
0.04,0.88,-0.05,58.27,-79.75,-75.43
0.12,0.84,-0.04,57.12,-74.43,-62.04
0.28,0.93,-0.06,41.19,-50.81,-54.01
0.38,0.85,-0.03,30.97,-1.58,-35.14
0.36,0.74,-0.05,24.73,40.89,-11.81
0.2,0.74,-0.07,20.24,59.95,-0.1
-0.01,0.75,-0.07,22.69,80.28,18.98
-0.28,0.76,-0.02,27.22,53.12,40.12
-0.56,0.81,-0.17,23.92,1.78,55.91
-0.82,0.99,-0.35,7.88,-14.27,59.08
-0.92,1.17,-0.61,22.82,-32.54,51.37
-1.06,1.15,-0.5,-17.44,-74.05,34.24
-1.15,0.92,-0.44,-19.21,-80.97,21.31
-0.67,1.17,-0.21,-27.77,-85.15,32.34
0.04,1.31,0.05,-48.65,-109.27,54.85
-0.12,0.89,0.06,19.21,-63.29,37.95
0.55,1.14,-0.42,-13.34,-50.23,40.52
1.01,0.78,0.05,-8.89,-19.73,78.65
0.14,1.02,-0.16,-12.53,24.37,84.57
-0.18,1.01,-0.34,-16.24,-10.22,69.78
0.17,0.91,-0.2,-15.88,-39.04,67.68
0.04,0.89,-0.22,-12.93,-22.18,63.96
0.26,0.95,-0.2,-11.85,9.95,62.95
0.05,0.97,-0.14,-15.61,29.06,58.56
-0.16,0.95,-0.16,-17.15,16.32,59.82
0.02,0.89,-0.23,-15.21,3.14,60.79
0.04,0.92,-0.21,-12.49,14.5,57.38
-0.04,0.96,-0.15,-12.27,14.79,57.58
0,0.93,-0.11,-11.22,13.5,55.78
-0.04,0.93,-0.18,-8.37,20.9,52.74
-0.11,0.95,-0.19,-7.04,18.41,48.24
-0.02,0.96,-0.18,-4.04,16.82,44.47
-0.02,1.04,-0.15,-4.42,19.24,42.59
0.03,1.04,-0.12,-1.74,25.44,39.99
0.18,0.98,-0.4,10.21,26.07,41.95
0.09,1.14,-0.22,-2.37,97.91,41.82
-0.22,1.12,-0.23,-9.92,104.38,37.91
-0.35,1.12,-0.19,-21.68,81.4,33.24
-0.32,1.05,-0.21,-27.25,54.3,23.11
-0.23,0.98,-0.28,-20.18,41.19,9.38
-0.19,1.35,-0.17,-28.68,76.65,-13.36
-0.25,1.11,0.05,-39.5,124.12,-54.79
-0.27,1.03,0.17,-57.76,165.85,-110.35
-0.44,0.6,-0.11,-31.31,136.49,-151.24
-0.61,0.77,-0.27,0.98,54.59,-164.38
-0.16,1.34,-0.29,25.44,0.12,-153.85
-0.02,1.45,-0.36,35.38,-1.88,-140.71
0.11,1.17,-0.32,46.65,-13.02,-124.89
0.11,1.15,-0.15,57.76,-36.24,-116.45
0.04,1.17,-0.19,71.55,-56.44,-102.78
0.13,1.07,-0.23,73.68,-59.53,-91.82
0.16,1.04,-0.17,75.62,-62.34,-80.58
0.22,0.98,-0.18,75.89,-85.8,-71.08
0.21,0.89,-0.22,72.11,-94.92,-60.21
0.33,0.87,-0.2,57.43,-84.12,-41.89
0.36,0.85,-0.13,41.66,-50.23,-17.35
0.28,0.79,-0.05,32.44,-33.88,15.2
0.09,0.72,-0.01,25.68,-34.14,38.9
-0.16,0.71,0.05,23.71,-54.92,54.05
-0.45,0.74,0.01,26.55,-105.53,60.52
-0.18,0.86,-0.23,24.08,-101.44,61.9
-0.04,0.96,-0.32,24.3,-23.5,52.45
-0.34,1.05,-0.55,28.88,44.29,42.3
-0.95,1.09,-0.49,3.43,24.41,26.56
-0.99,0.98,-0.38,-10.8,-34.86,17.92
-0.45,0.93,-0.23,-9.35,-59.46,22.97
-0.08,1.95,-0.08,-29.64,-91.44,52.57
-0.39,0.96,-0.61,11.03,-82.48,40.89
0.42,0.85,0.05,-3.38,-98.93,48.19
1.09,0.85,0.09,-8.56,-22.69,70.7
0.12,1.09,-0.14,-15.89,16.18,84.18
-0.1,1.01,-0.23,-21.03,-14.01,65
0.34,0.97,-0.17,-19.47,-6.57,66.92
0.12,0.89,-0.19,-18.85,28.28,63.79
0.02,0.99,-0.22,-21.33,37.79,67.14
-0.1,0.98,-0.19,-22.89,26.87,65.83
-0.08,0.94,-0.22,-19.37,16.23,66.44
-0.01,0.94,-0.18,-17.19,8.85,65.37
0.04,0.98,-0.15,-16.15,10.65,60.66
0.04,0.99,-0.15,-12.56,15.28,58.09
0.05,1,-0.15,-11.35,14.02,57.21
0.06,1.03,-0.09,-10.73,18.08,55.6
0.1,0.98,-0.2,-6.92,18.9,53.76
0.1,1.08,-0.15,-7.69,36.46,48.52
0.1,1.03,-0.13,-8.4,36.44,48.75
0.05,1.03,-0.08,-9.81,37.56,48.6
0.08,0.97,-0.11,-8.45,50.6,46.86
-0.09,0.95,-0.16,-10.4,67.69,41.78
-0.26,0.92,-0.19,-11.62,59.76,35.28
-0.22,0.97,-0.27,-19.03,47.27,26.47
-0.16,1,-0.23,-26.31,44.15,15.09
-0.11,1.02,-0.19,-29.45,58.79,0.3
-0.26,1.34,-0.3,-14.24,77.28,-26.4
-0.53,1.06,0.02,-30.76,124.18,-60.97
-0.44,0.88,-0.05,-32.98,124.66,-119.34
-0.45,0.55,-0.4,3.63,68.94,-163.99
-0.54,0.81,-0.27,36.56,20.76,-170.58
-0.06,1.72,-0.28,56.65,18.92,-159.21
0.26,1.67,-0.24,45.74,26.35,-143.62
0.1,1.18,-0.1,56.08,16.59,-139.36
-0.09,1.19,0,68.21,-22.11,-121.84
0.07,1.18,-0.07,75.95,-41.93,-112.72
0.02,1.15,-0.08,71.68,-47.82,-98.69
0.08,1.07,0.01,64.95,-69.71,-93.27
0.27,0.94,0.01,59.27,-86.66,-87.72
0.36,0.91,0,50.95,-70.89,-82.08
0.46,0.9,0.04,29.73,-19.76,-73.8
0.46,0.8,0.01,21.34,31.33,-51.02
0.31,0.73,0,5.11,55.39,-26.86
0.24,0.66,-0.02,-3.05,78.73,-2.06
-0.08,0.62,-0.1,10.76,80.66,21.47
-0.6,0.71,-0.29,22.5,26.52,41.82
-0.73,0.94,-0.31,3.23,-12.42,60.72
-1.04,1.21,-0.35,10.72,-62.11,56.01
-1.24,1.2,-0.69,-13.44,-71.92,37.15
-1.06,1.15,-0.51,-26.13,-72.02,24.11
-0.65,1.54,-1,-36.82,-92.98,32.95
0.44,1.03,0.5,-3.95,-75.34,44.51
0.68,0.81,-0.04,14.71,-1.1,20.59
0.47,1.08,-0.18,-5.4,15.15,78.05
0.12,0.99,0.13,-16.11,-44.28,94.21
0.01,0.94,-0.38,-9.11,-44.51,75.71
0.26,0.9,-0.32,-9.21,-24.6,71.24
0.23,0.96,-0.27,-11.62,-0.53,65.95
-0.03,0.92,-0.15,-10.31,16.79,64.98
-0.04,0.95,-0.18,-11.34,16.15,64.76
-0.06,0.95,-0.14,-12.36,0.11,60.26
0.03,0.94,-0.23,-10.24,-6.74,64.63
0.08,0.97,-0.22,-9.34,11.26,61.86
0.02,0.97,-0.17,-12.08,31.52,57.09
-0.01,0.96,-0.13,-10.48,36.63,53.06
-0.08,0.97,-0.1,-6.48,31.4,51.43
-0.01,1,-0.14,-3.46,24.47,49.53
0.11,1.07,-0.15,-4.29,30.12,49.4
0.07,1.02,-0.13,-6.08,40.31,45.97
0.14,0.99,-0.24,0.29,45.8,39.95
0.03,1.06,-0.16,-2.07,69.82,37.11
-0.01,1.01,-0.18,-1.63,82.08,37.92
-0.13,0.93,-0.25,-0.61,94.1,34.92
-0.29,0.89,-0.34,-6.47,104.75,27.91
-0.36,0.91,-0.42,-16.07,94.65,18.08
-0.37,0.92,-0.39,-20,62.12,12.56
-0.28,1.05,-0.31,-4.47,40.53,1.82
-0.13,1.2,-0.07,-10.66,80.73,-25.05
-0.18,1.33,0.26,-25.48,144.92,-83.29
-0.1,0.94,0.22,-32.52,189.73,-136.72
-0.18,0.61,-0.08,-8.2,182.15,-170.08
-0.09,1.03,-0.07,21.22,156.49,-177.08
0.03,1.64,0.06,39.75,185.99,-166.63
0.1,1.39,0.02,42.76,189.45,-140.66
-0.16,1.11,0.23,63.29,119.34,-137.9
-0.28,1.18,0.21,80.45,29.42,-127.82
-0.09,1.28,0.09,73.84,-16.68,-111.34
0.1,1.23,0.17,49.65,-20.28,-106.71
0.26,1.07,0.24,40.92,-13.15,-104.23
0.24,0.89,0.19,30.81,4.62,-104.09
0.24,1.02,0.13,22.92,31.63,-88.8
0.32,0.86,-0.05,11.54,73.4,-65.86
0.32,0.75,-0.08,-3.76,114.95,-47.32
0.2,0.72,-0.09,-17.21,136.56,-19.75
-0.02,0.7,-0.09,-26.2,129.81,5.23
-0.15,0.75,-0.14,-33.53,97.97,9.82
-0.31,0.71,-0.35,-32.69,90.02,25.78
-0.35,0.77,-0.49,-33.57,90.77,46.18
-0.53,1.04,-0.47,-43.16,105.84,45.25
-1.06,1.03,-0.5,-38.1,88.2,14.48
-1.17,0.91,-0.64,-31.75,44.44,-1.9
-0.85,1.2,-0.62,-15.71,-14.85,13.57
0.02,1.83,-0.43,-35.94,-19.52,46.56
0.43,0.62,0.03,-13.04,-10.56,22.6
0.11,0.78,-0.05,-9.67,28.84,39.01
0.04,1.11,-0.03,-24.45,-15.08,67.67
0.1,0.99,-0.01,-15.63,-29.69,60.67
0.36,0.89,-0.36,-12.13,-2.66,46.42
0.29,0.94,-0.31,-12.46,35.5,39.06
-0.05,0.95,-0.34,-14.25,36.76,32.06
-0.12,0.92,-0.29,-10.33,25.3,34.23
-0.01,0.95,-0.21,-8.26,12.66,34.34
0.1,0.93,-0.18,-8.73,15.34,37.4
0.17,0.96,-0.21,-8.2,28.14,39.13
0.1,0.97,-0.23,-9.03,36.13,38.83
0.02,0.97,-0.23,-8.41,32.91,41.06
0.05,0.94,-0.21,-4.99,28.52,41.88
0.08,0.96,-0.21,-1.29,36.29,39.02
0.01,0.97,-0.17,-1.89,49.5,37.21
-0.04,0.98,-0.18,-2.21,56.73,33.03
-0.13,1,-0.23,0.31,54.93,27.65
-0.07,1.01,-0.26,0.27,54.47,22.46
0.02,0.89,-0.43,5.89,47.07,21.78
-0.03,1.1,-0.27,0.03,80.02,19.24
-0.07,1.03,-0.25,-4.27,77.89,20.75
-0.06,1.02,-0.19,-7.66,78.44,16.89
-0.08,1,-0.29,-9.76,76.61,12.63
0,1.01,-0.22,-12.7,73.4,10.75
0.11,1.02,-0.19,-12.12,95.34,7.31
0.05,1.37,-0.13,-13.47,135.26,-8.59
-0.07,1.1,0.01,-25.09,175.45,-37.07
-0.21,1.11,0.14,-40.68,229.44,-88.87
-0.37,0.88,0.19,-52.77,250.13,-134.44
-0.41,0.62,-0.07,-33.27,219.42,-169.65
-0.32,0.79,-0.11,-11.63,142.11,-175.27
-0.17,1.34,-0.19,15.43,108.25,-175.6
-0.1,1.55,-0.14,22.15,102.66,-154.15
0.1,1.26,-0.08,31.51,94.55,-143.54
0.03,1.14,0.01,42.31,66.17,-136.34
-0.05,1.15,0.1,46.82,35.74,-121.1
-0.15,1.04,0.02,55.89,17.69,-106.27
-0.17,1,-0.03,49.96,-22.78,-96.31
-0.05,0.94,0.04,45.69,-42.56,-103.22
0.09,0.96,0,32.29,-40.45,-85.24
0.2,0.95,-0.03,17.54,-19.16,-68.81
0.28,0.8,-0.04,6.68,22.64,-66.03
0.21,0.73,-0.05,-6.17,56.88,-36.87
0.05,0.67,-0.07,-8.92,72.25,-12.44
-0.03,0.66,-0.12,-11.92,93.63,4.14
-0.3,0.67,-0.05,-10.25,75.87,22.98
-0.6,0.72,-0.16,-8.4,21.69,43.06
-0.85,0.9,-0.28,-21.25,-30.85,51.46
-0.96,1.04,-0.36,-13.54,-61.09,44.95
-0.9,1.07,-0.69,-15.35,-71.38,41.44
-0.9,0.9,-0.42,-17.33,-55.9,28.11
-0.7,0.97,-0.42,-30.43,-21.11,9.21
-0.27,1.69,-0.07,-28.54,-45.21,38.27
-0.38,1.07,0.17,-10.82,-61.2,20.48
0.13,0.82,-0.27,22.49,-53.3,38.44
0.86,0.92,-0.01,-8.27,-22.04,70.44
0.27,1.01,-0.1,-12.6,-13.69,94.24
-0.28,1.06,-0.23,-15.4,-36.92,88.14
0.13,0.87,-0.29,-14.56,-51.89,73.74
0.34,0.93,-0.17,-15.84,-18.52,75.21
-0.08,0.92,-0.22,-16.21,6.31,68.15
-0.06,0.97,-0.19,-20.15,9.35,65.12
-0.02,0.93,-0.15,-22.94,18.55,63.4
-0.2,0.92,-0.17,-20.49,9.24,62.47
-0.15,0.9,-0.21,-14.66,-4.42,60.84
-0.06,0.94,-0.19,-11.15,-13.44,60.35
-0.08,0.94,-0.15,-10.58,-17.63,58.02
-0.1,0.93,-0.14,-9.25,-28.44,55.43
-0.01,0.93,-0.15,-5.98,-37.23,54.47
0.12,0.98,-0.14,-3.9,-30.79,54.03
0.21,1.04,-0.11,-3.97,-7.79,53.4
0.18,1.07,-0.11,-4.88,19.49,52.11
0.07,1.1,-0.06,-10.02,37.15,54.7
0.08,1.02,-0.17,-5.71,40.24,54.8
-0.25,1.02,-0.15,-13.15,51.11,51.09
-0.35,1.06,-0.19,-22.39,17.6,42.08
-0.19,1.08,-0.18,-27.31,-8.61,31.77
-0.01,1.08,-0.18,-28.28,2.18,22.34
-0.09,1.16,-0.35,-16.99,22.15,9.62
-0.26,1.23,-0.23,-30.85,68.42,-14.71
-0.38,1,-0.02,-40.41,105.13,-57.03
-0.43,0.91,0.01,-55.79,118.61,-110.15
-0.46,0.57,-0.17,-21.66,74.88,-147.17
-0.44,0.64,-0.44,16.81,7.73,-158.85
-0.23,1.26,-0.36,38.69,-26.69,-143.6
0.22,1.64,-0.4,45.66,-32.11,-130.44
0.03,1.26,-0.48,52.3,-36.87,-122.52
-0.02,1.2,-0.33,63.34,-78.17,-103.34
0.02,1.14,-0.34,78.86,-123.41,-88.41
0.07,1.06,-0.31,89.79,-141.03,-79.01
0.15,1.03,-0.3,99.83,-154.92,-69.76
0.3,1.03,-0.29,92.25,-161.44,-68.92
0.42,0.94,-0.26,83.25,-142.77,-58.54
0.38,0.91,-0.16,72.98,-122.56,-49.5
0.43,0.92,-0.14,52.23,-86.89,-35.79
0.36,0.86,0.08,31.56,-58.08,-19.62
0.23,0.85,0.15,14.82,-35.05,-3.75
0.1,0.84,0.22,2.13,-8.98,8.85
-0.09,0.84,0.3,3.7,-8.29,25.65
-0.33,0.72,-0.06,34.89,-17.08,31.69
-0.33,0.85,-0.36,32.58,17.99,38.57
-0.21,1.01,-0.58,38.44,59.53,43.53
-0.82,1.18,-0.72,13.73,31.8,33.03
-1.48,0.99,-0.52,-15.18,-27.34,25.98
-1.01,0.89,-0.44,-20.76,-87.21,31.95
-0.16,1.41,0.07,-11.4,-165.47,51.6
0.1,1.07,0.44,-20.92,-76.06,69.61
-0.56,1.06,-0.78,21.4,-113.7,38.95
1.01,0.96,0.13,10.85,-92.64,66.85
0.97,0.81,0.17,-7.82,-10.79,83.69
-0.14,1.09,-0.2,-8.79,13.17,92.54
-0.19,0.95,-0.36,-12.59,-43.73,70.82
0.24,0.92,-0.22,-8.95,-55.89,71.63
0.06,0.87,-0.2,-7.12,-28.73,69.37
0.1,0.96,-0.19,-5.6,-4.53,64.83
0.09,0.98,-0.11,-10.29,21.36,58.64
-0.07,0.95,-0.13,-13.55,24.99,55.75
-0.08,0.92,-0.17,-10.32,5.18,59.56
0,0.95,-0.16,-6.63,-1.98,62.96
0.02,0.96,-0.16,-8.59,3.24,61.84
-0.07,0.94,-0.13,-6.24,-6.47,62.82
0.05,0.95,-0.16,-1.56,-11.66,63.89
0.11,0.96,-0.16,0.39,-2.53,63.11
0.07,0.96,-0.13,-0.93,15.48,57.46
0.06,1.01,-0.15,-0.02,21.35,51.6
0.05,1.06,-0.21,1.88,25.08,49.07
0.05,1.13,-0.2,-0.95,35.2,50.22
0.17,1.01,-0.33,3.13,49.21,49.19
-0.19,1.04,-0.26,-5.7,76.81,42.49
-0.25,1.04,-0.31,-14.27,63.61,31.6
-0.25,1.01,-0.29,-21.51,48.12,16.93
-0.15,1.02,-0.34,-15.27,36.69,7.92
-0.14,1.43,-0.17,-27.75,58.54,-10.95
-0.09,0.99,-0.02,-23.39,100.31,-43.02
-0.34,1.14,0.07,-36.89,137.21,-95.5
-0.36,0.76,0.12,-29.88,143.34,-137.72
-0.2,0.61,-0.25,5.86,103.91,-161.35
-0.28,0.99,-0.23,25.4,73.68,-165.31
-0.02,1.52,-0.08,38.46,72.74,-149.21
0.19,1.35,-0.2,49.12,66.82,-141.64
-0.02,1.17,-0.05,57.74,48.15,-128.34
0.01,1.18,0,70.29,6.6,-119.92
-0.14,1.13,-0.07,77.04,-27.05,-105.87
-0.18,1.05,-0.04,74.46,-70.79,-88.28
0.08,1.02,0.05,70.14,-100.06,-87.11
0.3,1.03,-0.03,62.87,-86.79,-87.51
0.33,0.98,0.05,43.86,-44.76,-79.26
0.41,0.97,0.04,27.55,14.17,-63.92
0.4,0.77,0.07,17.77,63.66,-44.08
0.18,0.72,0.02,8.1,88.87,-27.76
0.07,0.71,-0.02,-3.48,102.13,-4.11
-0.08,0.62,-0.09,1.86,99.18,12.66
-0.37,0.67,-0.2,9.81,76.65,24.5
-0.56,0.85,-0.46,0.02,51.18,40.6
-0.71,1.06,-0.48,1.9,29.08,43.65
-1.08,1.18,-0.54,-9.35,-19.02,27.95
-1.2,0.99,-0.55,-19.95,-48.92,14.23
-0.81,1.02,-0.46,-43.82,-58.4,13.85
-0.04,1.7,-0.13,-30.92,-82.25,38.44
0.44,0.73,0.91,-25.27,12.97,49.93
-0.53,1.06,-0.8,17.18,16.7,16.59
0.43,1.02,-0.05,-20.5,-37.51,49.45
0.56,0.84,0.19,-13.47,-21.06,67.87
-0.04,0.98,-0.25,-5.95,-9.74,69.44
0.16,0.98,-0.34,-10.87,-16.84,55.95
0.45,0.98,-0.26,-11.4,6.47,53.58
-0.03,0.92,-0.19,-11.47,35.98,53.59
-0.07,0.93,-0.21,-11.96,40.79,49.32
0,0.98,-0.23,-13.21,40.86,44.9
-0.11,0.92,-0.23,-16.18,38.33,48.09
-0.08,0.92,-0.26,-13.74,32.32,49.95
-0.04,0.94,-0.23,-11.36,28.22,49.89
-0.05,0.94,-0.2,-11.08,28.81,52.09
-0.09,0.94,-0.16,-7.7,20.37,54.49
-0.03,0.91,-0.15,-3.49,16.03,55.66
-0.01,0.93,-0.16,-2.77,32.76,51.12
-0.14,0.94,-0.19,-2.79,44.71,42.98
-0.2,0.89,-0.21,0.52,41.89,34.31
-0.18,0.87,-0.3,2.82,42.21,25.06
-0.06,0.99,-0.35,0.91,45.4,22.38
0.11,1.01,-0.27,-4.44,51.91,24.11
0.41,1.16,-0.32,5.88,99.71,18.05
0.02,1.19,-0.24,-10.48,143.05,14.53
-0.26,1.17,-0.1,-20.53,129.5,9.63
-0.36,1.15,-0.19,-16.16,99,2.05
-0.33,1.28,-0.04,-23.95,115.55,-18.03
-0.3,1.17,0.02,-29.14,149.52,-60.44
-0.27,1.06,0.13,-52.44,206.37,-116.05
-0.31,0.66,-0.03,-39.32,220.87,-163.98
-0.29,0.58,-0.27,-10.69,176.76,-180.82
-0.16,1.15,-0.07,15.28,147.34,-175.4
-0.09,1.71,-0.08,29.18,153.47,-160.6
0.01,1.32,-0.15,38.47,127.52,-138.75
-0.07,1.1,0.07,43.17,70.47,-135.84
-0.12,1.08,0.09,55.47,19.21,-125.49
-0.1,0.97,-0.04,57.68,-12.6,-110.89
-0.03,0.98,-0.03,46.7,-31.1,-88.14
0.1,0.9,0.02,40.66,-37.64,-75.54
0.12,0.83,0.01,39.27,-34.59,-62.8
0.27,0.84,-0.02,31.57,-17.58,-62.5
0.35,0.83,-0.08,20.11,20.92,-55.08
0.26,0.83,-0.11,13.36,61.11,-25.81
0.21,0.73,-0.12,5.8,82.76,-0.83
0.01,0.65,-0.16,8.39,107.79,15.04
-0.19,0.65,-0.24,19.5,99.49,31.34
-0.57,0.79,-0.29,20.41,50.25,50.13
-0.92,1.04,-0.29,-1.6,-4.73,56.02
-1.13,1.14,-0.35,-0.43,-55.72,41.53
-1.09,1.06,-0.67,-9.95,-92.51,32.81
-0.85,1.04,-0.44,-29.34,-94.41,21.24
-0.55,1.59,-0.3,-22.42,-52.71,28.79
0.09,1.17,0.26,-39.48,-59.88,26.57
0.45,0.56,0.13,11,16.92,31.7
0.31,1.1,-0.33,-16.45,65.69,45.59
0.12,1.06,-0.02,-27.98,10.37,90.38
-0.14,0.86,-0.08,-20.78,-26.4,85.12
-0.14,0.86,-0.35,-13.44,-42.92,71.61
0.36,0.94,-0.27,-10.24,-27.15,67.21
0.2,0.92,-0.26,-9.13,7.24,57.39
0,0.94,-0.25,-10.52,28.42,58.18
-0.16,0.94,-0.24,-8.99,15.35,55.05
-0.13,0.92,-0.18,-9.67,-9.32,57.77
0.05,0.91,-0.25,-6.62,-14.89,60.33
0.07,0.94,-0.18,-6.21,1.48,54.63
0.07,0.97,-0.17,-6.3,14.5,48.73
0,0.95,-0.19,-6.55,22.6,45
0,0.94,-0.19,-1.79,30.93,40.75
0.04,0.94,-0.18,1.48,36.89,37.65
0.08,1.02,-0.17,-0.12,46.44,34.58
0.02,1.03,-0.17,-2.98,54.05,30.12
-0.01,1.03,-0.21,-3.29,50.39,25.11
0.18,0.99,-0.38,4.54,40.31,29.14
0.11,1.19,-0.21,-3.52,93,33.46
-0.01,1.03,-0.27,-2.75,109.22,33.95
-0.18,0.93,-0.32,-5.7,121.72,27.5
-0.34,0.93,-0.4,-13.03,111.25,15.67
-0.33,0.94,-0.26,-19.66,95.02,4.79
-0.26,1,-0.22,-17.92,89.53,-2.63
-0.29,1.35,-0.06,-21.66,121.73,-24.08
-0.5,0.85,-0.03,-28.12,133.89,-55.5
-0.37,0.78,-0.1,-34.57,147.69,-116.87
-0.5,0.63,-0.3,-11.12,130.4,-159.2
-0.33,0.94,-0.2,15.06,88,-166.18
-0.01,1.6,-0.15,43.37,83.4,-170.89
0.09,1.78,-0.17,37.84,78.91,-148.71
0.11,1.3,-0.07,47.23,55.75,-140.66
-0.01,1.21,0.1,58.47,37.54,-134.09
-0.15,1.18,0.04,68.89,18.31,-125.54
-0.14,1.2,0.04,62.85,-18.03,-117.9
0.02,1.19,0.15,51.13,-44.73,-115.82
0.1,1.01,0.08,34.85,-42.83,-111.92
0.18,1,0.12,23.14,-17.49,-102.47
0.25,0.95,0.04,9.25,22.97,-84.88
0.31,0.77,0.01,-0.42,63.65,-64.32
0.21,0.76,-0.12,-4.44,89.74,-43.37
0.07,0.73,-0.13,-14.37,116.32,-10.89
-0.05,0.59,-0.08,-22.42,116.35,10.06
-0.27,0.56,-0.14,-17.71,74.63,24.55
-0.56,0.53,-0.42,-2.97,11.31,49.71
-0.6,0.71,-0.59,-11.54,-15.35,66.77
-0.93,1.09,-0.4,-16.01,-45.44,66.4
-1.26,1.07,-0.53,-29.86,-80.33,42.61
-0.96,0.87,-0.65,-36.4,-80.89,33.4
-0.26,1.24,-0.21,-41.15,-106.21,42.59
0.58,1.35,0.11,8.4,22.85,69.79
-0.93,1.63,-0.5,-19.4,3.21,18.92
0.74,0.56,-0.01,-0.2,-80.24,48.05
0.71,0.77,0.1,-22.23,-27.04,87.89
-0.16,1.17,-0.63,-17.07,-0.27,85.41
0.3,0.89,-0.35,-10.24,-42.69,78.49
0.3,0.91,-0.2,-16.29,7.76,78.9
-0.26,0.95,-0.2,-19.46,13.83,70.27
0.03,0.98,-0.2,-17.42,-9.52,68.57
0.11,0.92,-0.27,-12.73,5.31,68.31
0.01,0.96,-0.23,-16.31,14.06,63.15
0.05,1,-0.18,-16.7,6.85,61.17
0.08,1,-0.17,-15.49,5.98,59.84
0.1,1.01,-0.15,-12.4,15.26,58.58
0.09,1,-0.13,-11.5,30.53,56.49
0.02,1.06,-0.13,-11.43,35.42,55.43
0.15,1.04,-0.18,-8.63,41.96,58.27
0.05,1.03,-0.12,-10.44,48.85,59.85
-0.03,1.02,-0.13,-8.17,51.76,57.1
-0.13,1,-0.19,-8.73,61.64,53.24
-0.21,0.89,-0.29,-9.22,68.19,45.1
-0.26,0.92,-0.33,-11.13,77.6,33.52
-0.26,0.93,-0.46,-22.12,81.17,21.87
-0.26,0.95,-0.27,-30.76,69.88,11.63
-0.06,1.02,-0.15,-22.44,86.23,-3.31
-0.32,1.42,0.14,-37.38,147.05,-37.97
-0.4,1.19,0.27,-43.5,180.41,-92.29
-0.37,0.79,-0.13,-32.17,157.24,-150.05
-0.47,0.56,-0.33,1.68,94.31,-178.6
-0.36,1.22,-0.2,32.34,79.32,-176.44
0.05,1.72,-0.18,34.48,78.11,-158.59
0.1,1.19,-0.19,51.08,50.76,-150.66
-0.05,1.15,-0.03,65.05,27.15,-137.8
0.01,1.18,0.03,80.67,-8.16,-133.43
-0.05,1.08,-0.09,86.53,-25.97,-120.47
-0.11,1.11,-0.1,78.27,-49.84,-101.26
0.06,1.03,0,69.54,-72.13,-92.13
0.25,0.85,-0.01,58.86,-85.76,-87.03
0.38,0.87,-0.03,49.69,-48.95,-76.57
0.47,0.88,0.02,30.08,-0.98,-52.85
0.45,0.72,0,20.47,48.44,-30.13
0.3,0.73,-0.05,10.29,75.34,-4.03
0.16,0.66,-0.03,10.64,102.21,18.68
-0.26,0.65,-0.07,25.87,72.7,36.48
-0.7,0.78,-0.33,30.33,9.16,59.09
-0.61,1.02,-0.44,5.62,-8.6,70.28
-0.93,1.22,-0.62,24.29,-42.12,68.47
-1.39,1.14,-0.57,-21.98,-75.5,44.82
-1.19,1.07,-0.55,-31.56,-93.79,31.64
-0.53,1.91,-0.48,-33.58,-136.5,55.79
-0.08,1.09,0.36,-9.91,-122.95,40.08
0.97,0.86,0.2,4.85,-50.06,34.18
1.17,0.8,-0.2,-16.81,19.16,72.73
0.24,1.13,-0.14,-16.79,36.56,103.63
-0.25,1.04,-0.4,-21.34,7.15,81.02
0.03,0.85,-0.24,-18.74,-29.73,73.18
0.09,0.91,-0.18,-18.95,-23.37,65.04
0.1,0.91,-0.24,-14.56,9.72,61.67
0.15,0.95,-0.21,-16.44,46.02,58.79
-0.19,0.93,-0.2,-17.73,50.19,52.24
-0.26,0.92,-0.24,-17.5,17.36,51.01
-0.09,0.88,-0.28,-10.86,-3.73,53.28
-0.03,0.94,-0.24,-8.53,6.69,49.95
-0.07,0.94,-0.16,-8.18,7.95,46.02
0.03,0.94,-0.14,-3.27,-0.93,49.7
0.18,1.01,-0.1,-2.18,9.28,53.98
0.19,1.02,-0.12,-4.32,23.03,55.69
0.11,1.06,-0.12,-6.64,33.74,55.98
0.06,1.12,-0.13,-6.27,32.12,57.65
0.16,1.02,-0.33,1.06,37.31,59.37
-0.09,1.05,-0.25,-6.31,88.69,51.05
-0.27,0.98,-0.4,-8.8,90.82,39.57
-0.32,1.01,-0.41,-16.21,91.9,25.16
-0.33,0.98,-0.39,-25.16,89.95,11.76
-0.19,1,-0.23,-28.1,81.56,0.88
-0.18,1.47,-0.06,-36.44,114.31,-21.54
-0.18,1.12,0.2,-43.97,173.26,-60.07
-0.41,1.11,0.26,-58.56,207.84,-123.19
-0.34,0.51,-0.18,-24.8,162.85,-164.09
-0.45,0.53,-0.38,9.85,88.34,-176.79
-0.31,1.3,-0.24,34.51,74.22,-168.79
0.02,1.7,-0.18,37.97,70.89,-149.48
0.08,1.15,-0.21,51.67,36.71,-138.51
-0.04,1.19,-0.03,61.15,5.91,-127.72
-0.04,1.14,0.02,73.4,-31.63,-117.78
0,1.03,-0.11,77.6,-40.98,-104.52
0.01,1.06,-0.07,67.87,-55.6,-88.27
0.05,0.98,0.04,59.73,-67.09,-77.98
0.24,0.89,0.02,49.88,-66.24,-65.34
0.3,0.81,0.03,44.03,-48.16,-52.57
0.46,0.9,-0.01,25.92,-5.48,-43.7
0.43,0.79,0.03,10.69,48.2,-16.89
0.29,0.72,0.02,3.08,75.57,7.23
0.09,0.69,0,11.47,102,27.66
-0.34,0.64,-0.12,37.84,69.37,47.35
-0.7,0.86,-0.33,30.87,27.32,57.63
-0.83,1.11,-0.5,20.76,25.58,53.9
-1.21,1.31,-0.81,21.08,-18.99,32.84
-1.67,1.26,-0.49,-26.22,-73.46,25.23
-1.35,1.55,-0.91,-34.89,-152.81,25.8
0.3,1.26,0.3,-37.85,-226.61,36.41
1.87,0.43,0.43,7.31,-80.6,36.34
0.96,0.88,-0.37,-18.81,81.61,79.95
-0.02,1.38,-0.08,-21.98,48.62,110.94
-0.18,0.94,-0.29,-23.42,2.59,79.78
-0.14,0.8,-0.29,-21.91,-14.27,77.72
0.04,0.95,-0.27,-20.33,-30.83,66.16
0.06,0.9,-0.29,-15.18,-13.13,62.95
0.17,0.94,-0.19,-15.53,24.31,62.78
-0.12,0.94,-0.15,-18.3,30.95,56.27
-0.22,0.91,-0.2,-19.46,5.4,54.87
0.02,0.88,-0.29,-12.53,-1.51,55.85
0.03,0.96,-0.22,-10.46,15.76,50.4
-0.09,0.96,-0.13,-10.57,11.71,44.61
0.01,0.94,-0.11,-7.02,5.01,45.68
0.06,0.96,-0.13,-3.94,17.96,43.42
0.08,1,-0.13,-3.52,21.06,44.11
0.14,1.1,-0.17,-3.92,22.01,46.1
0.13,1.15,-0.13,-6.44,30.52,51.29
0.14,1.03,-0.22,-2.42,46.1,53.6
-0.02,1.05,-0.19,-8.37,84.7,48.19
-0.28,0.98,-0.38,-12.63,84.22,41.33
-0.33,0.96,-0.43,-18.96,74.9,32.85
-0.28,0.93,-0.42,-24.35,67.02,22.08
-0.15,0.95,-0.29,-27.36,65.4,10.86
-0.11,1.47,-0.16,-25.61,96.96,-9.92
-0.14,1.1,0.13,-36.72,159.05,-41.28
-0.39,1.08,0.12,-45.28,193.25,-98.48
-0.5,0.75,-0.05,-36.37,168.11,-142.01
-0.54,0.55,-0.27,-4.85,113.98,-165.85
-0.32,1.01,-0.21,27.49,67.57,-167.78
-0.01,1.57,-0.11,40.65,70.15,-159.31
0.1,1.33,-0.18,46.99,52.95,-143.61
-0.07,1.17,-0.07,61.4,40.12,-131.27
-0.02,1.24,0.02,70.55,1.08,-121.63
-0.11,1.14,-0.04,73.64,-21.39,-111.93
-0.08,1.06,-0.04,67.44,-33.56,-100.93
0.03,1.04,0.03,58.47,-45.23,-88.66
0.04,0.93,0.07,50.85,-69.62,-71.38
0.18,0.79,0.1,47.26,-88.21,-58.54
0.32,0.9,0.05,33.2,-63.02,-43.01
0.51,0.77,0.01,9.27,5.44,-24.95
0.42,0.66,0.03,-5.49,62.3,-0.14
0.2,0.64,-0.01,-2.04,106.25,19.23
-0.41,0.62,-0.09,16.48,83.31,36.77
-0.94,0.78,-0.25,20.49,1.97,54.27
-1.03,1.13,-0.26,5.79,-37.84,54.79
-1.19,1.31,-0.62,10.46,-68.9,39.49
-1.07,0.98,-0.75,-31.88,-71.11,23.83
-0.81,1.45,-0.41,-28.16,-83.5,22.36
0.17,1.25,0.98,-31.28,-87.36,33.84
0.73,0.76,-0.08,14.66,12.67,40.47
0.32,1.27,-0.17,-13.08,25.24,61.04
0.39,1.07,0.09,-34.89,-2.37,88.64
0.07,0.9,-0.22,-18.12,-33.79,97.35
-0.14,0.88,-0.32,-18.61,-22.5,83.6
0.31,0.98,-0.2,-21.85,-11.28,69.32
0.1,0.94,-0.21,-26.32,13.15,68.7
-0.11,0.9,-0.23,-23.48,26.85,69.99
-0.06,0.95,-0.23,-23.16,31.75,64.18
-0.12,0.9,-0.21,-23.18,27.38,61.49
-0.17,0.89,-0.23,-18.93,21.75,56.95
-0.18,0.92,-0.22,-13.59,3.85,48.09
-0.07,0.92,-0.23,-7.91,-11.5,46.09
0.06,0.95,-0.14,-6.79,-11.7,47.72
0.12,1.01,-0.09,-6.38,5.31,48.44
0.07,1.01,-0.09,-8.43,17.71,47.18
0.15,1.01,-0.12,-7.11,13.48,51.44
0.11,1.08,-0.05,-7.36,22.89,56.05
0.09,1.08,-0.13,-3.33,32.34,57.42
-0.03,1.1,-0.11,-7.93,53.85,56.64
-0.18,1.01,-0.25,-11.58,56.05,51.92
-0.28,1,-0.35,-17.54,51.84,41.97
-0.26,0.97,-0.37,-29.18,56.01,25.5
-0.15,0.98,-0.3,-33.82,68.05,9.56
-0.22,1.42,-0.19,-23.03,77.81,-10.94
-0.32,1.03,0.04,-29.08,123.88,-40.27
-0.39,1.14,0.04,-40.15,150.46,-92.96
-0.44,0.77,-0.08,-31.5,132.5,-137.5
-0.37,0.53,-0.31,9.55,81.23,-159.21
-0.26,1.08,-0.23,34.23,48.87,-156.66
0.01,1.62,-0.14,43.21,54.32,-143.08
0.16,1.22,-0.21,57.51,35.68,-134.38
-0.04,1.14,-0.05,67.82,13.66,-122.77
0.01,1.18,-0.01,78.37,-24.68,-116.51
-0.08,1.11,-0.1,85.23,-39.24,-103.47
-0.11,1.1,-0.13,78.95,-75.47,-82.1
0.05,1.05,-0.04,72.98,-110.69,-80.84
0.26,0.94,-0.03,68.61,-104.22,-70.08
0.3,0.86,0,59.34,-70.77,-65.84
0.46,0.9,-0.02,35.96,-12.15,-50.73
0.42,0.78,0.06,30.46,35.69,-25.48
0.19,0.69,0.02,21.85,53.73,-10.54
0.06,0.75,0,9.92,67.17,8.89
-0.02,0.7,0.05,15.77,69.43,32.98
-0.38,0.72,-0.22,34.28,45.83,43.21
-0.57,0.88,-0.53,21.19,58.11,51.47
-0.83,1.09,-0.65,34.64,35.02,50.93
-1.28,1.23,-0.53,-11.46,-42.31,29.62
-1.22,0.92,-0.49,-17.4,-90.21,17.98
-0.47,1.02,-0.25,-28.61,-94.6,28.75
0.16,1.97,-0.3,-35.05,-85.37,81.51
-0.26,1.03,-0.2,17.44,-22.9,44.09
0.34,0.95,-0.03,1.89,-60.07,43.08
1.13,0.84,0.09,-14.22,-8.94,74.37
0.31,0.96,-0.04,-13.88,12.28,98.24
-0.28,1.03,-0.25,-11.4,-9.05,80.87
0.25,0.93,-0.28,-11.59,-28.56,68.1
0.31,0.91,-0.21,-12.88,-0.31,67.42
0.03,0.93,-0.26,-9.5,27.24,63.12
0.1,0.98,-0.24,-13.27,52.71,57.47
-0.02,0.93,-0.23,-16.47,59.78,53.66
-0.19,0.88,-0.28,-11.56,38.2,50.95
-0.06,0.92,-0.3,-3.56,25.61,48.92
-0.05,0.93,-0.25,-1.65,32.15,44.06
-0.16,0.9,-0.27,3.12,18.39,40.85
0.06,0.86,-0.2,2.47,15.94,39.85
0.23,0.99,-0.2,6.85,31.92,44.08
0.14,1.08,-0.13,4.46,65.72,38.15
0.09,1.03,-0.18,1.15,75.7,42.02
0.23,0.95,-0.48,10.14,73.53,40.38
-0.09,1.12,-0.34,-0.92,111.82,38.67
-0.09,1.07,-0.25,-8.12,113.73,35.16
-0.18,0.97,-0.18,-11.17,108.14,29.73
-0.26,1.08,-0.18,-12.4,96.95,24.78
-0.13,1.08,-0.13,-20.73,95.3,19.32
-0.17,1.02,-0.06,-24.37,108.04,4.53
-0.18,0.97,-0.07,-26.59,133.87,-17.81
-0.34,1.36,-0.07,-30.09,176.63,-62.91
-0.25,1.08,-0.12,-48.89,226.8,-112.96
-0.28,0.44,-0.43,-15.99,202.85,-160.89
-0.62,0.52,-0.27,13.05,92.5,-168.76
-0.18,1.38,-0.19,39.15,79.88,-182.38
0.03,1.95,-0.06,35.97,53.53,-154.67
0.17,1.33,-0.03,40.24,56.37,-142.45
0.02,1.17,0.14,47.74,38.11,-140.54
-0.01,1.12,0.11,61.34,10.58,-130.04
0.12,1.06,0.01,71.69,2.63,-124.85
-0.01,1.1,-0.03,62.08,-7.04,-114.81
0.15,1.06,0.01,52.5,-18.54,-108.16
0.27,0.97,0.02,43.83,-14.95,-108.73
0.23,0.94,-0.05,34.4,-1.24,-93.6
0.25,0.87,-0.04,20.04,16.33,-71.37
0.24,0.83,-0.02,11.24,20.36,-37.38
0.34,0.66,-0.1,-3,44.44,-7.84
0.36,0.59,-0.03,-4.35,82.62,19.47
-0.05,0.72,-0.13,4.76,85.86,40.33
-0.68,0.86,-0.27,0.61,36.76,62.44
-1.07,0.96,-0.3,-2.56,-22,62.97
-1.45,1.15,-0.74,-10.56,-71.37,43.22
-0.91,0.94,-0.83,-28.74,-69.29,35
-0.41,0.88,-0.33,-49.24,-37.83,22.09
0.34,1.73,0.54,-42.65,-18.73,63.98
0.01,0.98,-0.06,-1.96,80.05,51.76
-1,1.15,-0.79,12.87,-29.22,32.5
0.88,0.83,0.14,-12.74,-99.5,65.53
0.69,0.81,0.04,-10.22,-73.69,80.27
-0.01,1.03,-0.36,-5.73,-29.31,78.93
0.49,0.99,-0.31,-12.19,-5.44,65.91
0.4,0.98,-0.16,-17.51,39.01,67.15
-0.21,0.87,-0.21,-19.52,46.96,61.95
-0.04,0.95,-0.22,-16.73,33.87,57.78
-0.05,0.91,-0.25,-17.52,32.42,56.1
-0.08,0.91,-0.24,-11.09,25.54,55.66
-0.06,0.95,-0.16,-7.19,10.69,54.48
0.02,0.94,-0.17,-4.99,5.3,55.15
0.17,0.98,-0.14,-3.49,21.81,56.98
0.1,0.98,-0.16,-1.69,39.48,56.29
0.05,1.02,-0.15,-0.23,49.58,52.41
-0.03,1.06,-0.18,-0.34,56.5,48.46
0,0.93,-0.29,3.69,50.61,46.64
0.04,1.05,-0.27,5.82,99.13,36.17
-0.18,1.07,-0.37,-4.49,119.53,30.4
-0.38,0.98,-0.33,-12.7,96.44,25.19
-0.27,1.06,-0.29,-16.76,75.97,20.7
-0.07,1.09,-0.22,-24.62,65.89,17.16
0.02,1.05,-0.15,-28.76,72.12,13.44
0,1.49,-0.12,-29.65,114.11,-6.99
-0.16,0.87,0.04,-36.45,165.53,-42.22
-0.42,1.11,0.05,-50.62,196.02,-104.89
-0.41,0.72,-0.03,-34.44,182.85,-149.11
-0.48,0.59,-0.24,-5.69,139.37,-168.24
-0.3,1.14,-0.15,26.71,73.56,-171.15
-0.02,1.61,-0.07,37.14,61.26,-158.39
0.11,1.28,-0.06,44.92,50.95,-147.48
0.12,1.24,0.08,53.21,45.97,-137.61
0,1.2,0.08,62.15,31.07,-134.02
-0.04,1.07,0.01,63,14.36,-118.98
-0.03,1.03,0.06,57.68,-5.88,-107.94
0.11,1.01,0.09,50.64,-29.77,-96.6
0.23,0.91,0.05,47.22,-35.47,-87.02
0.26,0.86,-0.03,42.05,-18.63,-74.06
0.39,0.93,-0.08,21.06,24.74,-52.11
0.43,0.74,-0.05,13.11,66.79,-33.31
0.3,0.73,-0.12,4.05,95.77,-6.63
0.18,0.69,-0.08,-2.52,115.45,19.21
-0.18,0.66,-0.18,13.45,101.32,39.37
-0.51,0.78,-0.44,14.54,64.46,54.95
-0.93,0.91,-0.49,6.72,65.73,60.72
-1.35,1.18,-0.7,29.77,-21.76,49.59
-1.48,1.1,-0.6,-21.87,-83.8,28.04
-0.89,0.89,-0.58,-36.34,-96.99,20.53
-0.05,0.95,-0.27,-22.56,-138,40.44
0.89,1.53,0.67,-27.34,-8.52,101.68
-1.28,1.18,-0.56,2.81,-13.2,10.15
0.34,1.09,-0.45,-16.55,-121.76,50.53
1.47,0.69,0.34,-12.6,-44.67,77.02
0.02,0.98,-0.5,-13.51,51.17,69.65
-0.04,1.08,-0.29,-17.95,-8.61,63.69
0.3,0.93,-0.16,-20.08,-23.79,61.79
-0.03,0.87,-0.24,-14.08,5.37,59.37
0.2,0.97,-0.23,-15.3,23.51,55.28
0.04,0.97,-0.2,-18.67,34.95,56.03
-0.08,0.93,-0.19,-17.6,28.21,58.55
-0.07,0.92,-0.19,-13.09,22.57,57.11
-0.02,0.94,-0.2,-9.29,21.32,54.67
-0.14,0.91,-0.18,-4.33,14.73,51.63
-0.08,0.93,-0.15,-3.6,11.31,48.18
-0.07,0.94,-0.18,-2.59,19.05,43.95
-0.06,0.94,-0.22,0.46,23.98,37.73
-0.04,0.96,-0.21,1.12,28.09,32.96
0.04,1.01,-0.16,3.73,32.54,30.4
0.12,1.08,-0.13,6.36,46.47,32.88
0.42,1.13,-0.44,17.15,81.07,34.37
-0.09,1.12,-0.35,-1.02,132.95,27.81
-0.32,1.08,-0.28,-15.73,131.77,13.44
-0.42,1.1,-0.19,-24.73,89.15,7.28
-0.19,1.06,-0.1,-26.01,63.71,0.63
-0.13,1.08,-0.19,-18.44,76.45,-8.78
-0.17,1.17,0.08,-28.16,136.53,-31.67
-0.21,0.93,0.12,-45.27,197.37,-75.64
-0.36,0.89,-0.09,-47.53,211.86,-134.32
-0.57,0.73,-0.23,-21.76,168.23,-166.63
-0.42,0.92,-0.11,5.11,112.4,-173.6
-0.05,1.51,-0.09,33.86,91.19,-172.11
0.05,1.62,-0.06,27.64,70.96,-151.24
0.12,1.14,-0.02,44.2,65.81,-138.15
-0.09,1.07,0.02,56.28,35.5,-129.83
-0.08,1.04,-0.04,63.89,-4.86,-112.92
-0.05,1,-0.14,57.74,-22.6,-103.16
-0.03,0.98,-0.08,49.6,-40.53,-88.89
0.08,0.92,-0.04,44.24,-55.34,-77.07
0.26,0.81,-0.04,42.16,-56.33,-73.12
0.28,0.87,-0.1,23.76,-24.53,-58.92
0.36,0.77,-0.04,12.49,17.49,-40.22
0.31,0.66,-0.06,3.92,50.24,-9.06
0.25,0.67,-0.07,-5.87,81.48,11.56
-0.02,0.68,-0.01,-3.15,101.01,31.11
-0.45,0.66,-0.17,15.03,62.4,48.47
-0.77,0.81,-0.43,14.03,35.92,63.51
-1.27,1.07,-0.58,31.39,17.86,64.73
-1.33,1.31,-0.73,-4.15,-63.23,37.69
-1.31,0.97,-0.59,-24.21,-107.59,18.75
-0.88,1.7,-0.1,-34.13,-116.89,28.37
-0.22,1.09,0.18,-22.79,-144.4,34.41
0.47,0.96,0.15,27.4,-105.91,34.02
1.39,0.91,-0.14,-6.16,-43.45,55.8
0.71,0.92,-0.05,-25.23,35.18,103.8
-0.05,1.16,-0.23,-20.98,23.11,105.19
-0.26,0.86,-0.37,-22.92,-30.04,81.26
0.23,0.93,-0.14,-20.94,-39.49,79.99
0.12,0.89,-0.14,-19.76,-10.7,75.15
0.14,0.92,-0.2,-17.52,28.08,73.4
-0.03,0.94,-0.15,-19.73,49.12,61.6
-0.25,0.94,-0.21,-19.26,26.6,58.03
-0.18,0.85,-0.24,-14.51,1.69,62.48
0.04,0.92,-0.21,-9.37,3.34,51.55
-0.09,0.9,-0.17,-6.74,11.21,46.79
-0.08,0.91,-0.15,-4.3,11.66,46.74
0.05,0.95,-0.16,-1.37,14.87,46.65
0.06,1,-0.15,-1.07,13.96,49.26
0.16,1.05,-0.13,-1.2,20.67,50.94
0.12,1.1,-0.11,-1.3,37.06,50.5
0.14,0.95,-0.44,10.02,39.15,54.92
-0.05,1.13,-0.28,1.08,94.6,52.29
-0.31,1.11,-0.23,-11.2,103.75,41.89
-0.47,1.03,-0.23,-24.38,83.69,25.24
-0.44,0.99,-0.23,-29.18,50.74,10.9
-0.15,1.07,-0.24,-16.57,53.37,-4.28
-0.26,1.39,-0.13,-31.53,108.95,-36.41
-0.39,1.23,0.1,-38.02,157.61,-90.97
-0.3,0.88,0.15,-45.76,180.47,-144.84
-0.3,0.49,-0.16,-6.18,145.9,-177.16
-0.38,0.96,-0.12,18.53,92.98,-180.85
-0.1,1.53,-0.13,34.16,74.23,-162.64
0.05,1.28,-0.22,43.59,52.11,-150.83
0.02,1.13,-0.08,52.53,39.85,-136.94
0.11,1.14,-0.05,66.89,2.13,-131.86
-0.06,1.14,-0.21,76.52,-14.34,-121.79
-0.04,1.06,-0.16,69.41,-44.34,-102.56
0.07,1,-0.08,64.87,-69.91,-88.68
0.18,0.91,-0.06,64.87,-76.99,-73.19
0.29,0.87,-0.09,56.53,-60.07,-70.29
0.26,0.89,-0.08,39.87,-30.5,-49.21
0.3,0.83,-0.02,30.66,-4.17,-24.15
0.29,0.83,-0.01,12.81,21.89,0.81
0.13,0.79,0.07,-1.15,54.56,26.95
-0.23,0.68,-0.03,10.58,43.79,42.75
-0.67,0.75,-0.31,22.15,-9.15,56.14
-0.83,1,-0.28,2.22,-50.86,71.47
-0.93,1.11,-0.3,3.82,-103.62,61.56
-1.08,0.97,-0.6,1.7,-118.66,49.22
-0.86,0.84,-0.51,-12.04,-116.42,38.79
-0.47,1.32,-0.09,-9.09,-132.23,44.09
0.18,1.16,0.22,-4.69,-102.28,53.11
-0.49,1.16,-0.57,39.46,-83.75,37.31
0.74,0.99,0.06,-2.05,-84.11,62.47
0.81,0.75,0.05,-14.39,-44.11,96.18
-0.28,1.07,-0.36,-13.73,-11.91,99.82
0.04,0.87,-0.41,-11.18,-60.33,81.02
0.2,0.88,-0.25,-14.85,-30.86,73.95
-0.03,0.87,-0.35,-11.03,-1.49,64.11
0.01,0.96,-0.26,-12.07,8.02,65.84
-0.21,0.92,-0.22,-12.86,-1.15,67.76
-0.12,0.93,-0.23,-14.85,-18.19,70.08
0,0.92,-0.18,-13.78,-29.18,70.14
0.08,0.95,-0.16,-11.78,-30.01,71.28
0.14,1.01,-0.12,-11.67,-17.83,69.33
0.15,0.98,-0.13,-11.3,-3.88,66.76
0.07,0.98,-0.14,-10.24,2.41,62.14
0.09,1.04,-0.16,-10.34,8.76,58.83
0.1,1.09,-0.18,-11.86,10.78,58.84
0,1.1,-0.13,-14.87,16.74,56.84
-0.01,1.07,-0.17,-14.59,13.18,51.97
0.02,1.04,-0.21,-13.79,14.11,50.35
0.03,1,-0.18,-16.12,29.75,46.24
-0.04,0.88,-0.19,-15.44,51.24,40.3
-0.15,0.86,-0.23,-18.24,64.74,34.07
-0.23,0.94,-0.24,-25.11,62.01,25.27
-0.24,0.97,-0.18,-30.3,50.22,12.69
-0.19,1.02,-0.23,-23.79,45.31,-2.19
-0.36,1.34,-0.12,-28.95,74.08,-37.23
-0.43,1.1,0.09,-37.64,97.91,-78.56
-0.26,0.81,-0.03,-21.83,100.62,-133.42
-0.31,0.55,-0.32,16.27,59,-163.27
-0.42,1.09,-0.25,36.47,37.56,-153.7
0.04,1.66,-0.22,47.71,18.31,-137.34
0.14,1.29,-0.19,49.33,8.65,-129.87
-0.01,1.17,-0.09,57.63,-13.95,-118.51
0.01,1.16,-0.06,70.95,-55.21,-109.23
-0.08,1.15,-0.1,74.79,-72.27,-98.46
0.09,1.05,-0.1,74.35,-78.45,-88.37
0.12,1.03,-0.03,70.06,-80.42,-84.42
0.24,1.01,-0.05,65.66,-70.4,-79.21
0.27,1.02,0,56.01,-50,-77.44
0.28,0.93,-0.01,42.5,-14.21,-67.66
0.26,0.84,0.03,31.73,2.58,-46.91
0.19,0.78,0.05,21.6,12.65,-25.93
0.14,0.81,0.05,3.03,40.4,-9.25
0.08,0.72,0.09,3.33,54.51,15.46
-0.22,0.65,-0.06,19.01,48.71,25.28
-0.51,0.78,-0.44,26.51,45.81,38.65
-0.57,0.96,-0.54,17.93,46.33,48.68
-1.07,1.29,-0.57,-2.49,-7.2,34.28
-1.37,0.84,-0.62,-14.47,-53.89,23.6
-0.8,0.97,-0.61,-32.71,-96.1,26.02
-0.08,1.84,0.05,-32.59,-133.19,62.06
0.19,0.92,0.08,18.6,-43.63,44.37
0.12,1.02,-0.31,4.29,-47.01,41.97
0.9,0.94,0.15,-10.27,-7.43,72.05
0.29,1,-0.11,-15.7,11.67,79.66
-0.22,0.99,-0.42,-13.38,-3.85,68.04
0.16,0.92,-0.31,-11.99,-26.3,58.97
0.12,0.93,-0.17,-12.9,-6.68,64.13
0,0.94,-0.15,-11.5,13.97,60.8
0.09,0.97,-0.16,-14.95,27.59,57.37
-0.03,0.97,-0.17,-17.73,35.59,55.63
-0.04,0.93,-0.25,-18.26,27.81,56.29
0.03,0.97,-0.24,-14.6,26.78,55.22
0,0.98,-0.19,-15.19,35.71,60.5
-0.08,0.96,-0.18,-13.72,33.17,60.4
-0.13,0.94,-0.19,-9.11,18.02,61.5
-0.02,0.96,-0.17,-4.47,15.37,59.69
-0.08,0.99,-0.18,-4.5,32.43,52.03
-0.19,0.96,-0.22,-4.17,41.8,40.4
-0.19,0.97,-0.27,-1.5,35.6,31.86
0.06,0.92,-0.49,4.73,24.01,39.16
0.16,1.2,-0.31,-5.66,83.61,37.95
0.17,1.19,-0.13,-24.96,112.56,32.5
0.03,1.11,-0.09,-29.3,120.25,20.66
-0.12,1.14,-0.16,-28.21,119.27,13.69
-0.25,1.18,-0.22,-26.82,119.73,5.91
-0.43,1.11,-0.32,-33.46,117.73,-15.47
-0.53,0.97,-0.17,-38.65,113.37,-51.97
-0.51,0.91,0.04,-37.66,108.47,-89.45
-0.33,0.7,-0.04,-12.65,78.31,-117.27
-0.34,0.7,-0.18,9.73,32.73,-133.71
-0.24,1.09,-0.14,31.29,-14.48,-136.2
0.2,1.36,-0.04,35.64,4.97,-134.43
0.37,1.28,-0.02,37.01,55.66,-132.71
0.19,1.24,0.03,42.43,80.02,-132.11
-0.03,1.17,0.14,47.92,66.57,-121.63
-0.08,1.07,0.07,58.2,28.04,-106.05
-0.05,1.05,0.02,55.79,-14.35,-88.16
0.12,0.99,0.06,49.55,-47.66,-76.47
0.25,0.93,0.08,38.79,-49.6,-73.11
0.24,0.88,0.13,24.76,-38.25,-62.28
0.32,0.85,0.13,8.12,1.4,-51.36
0.46,0.77,0.07,-1.78,50.01,-31.41
0.4,0.73,0,-6.51,101.97,-8.23
0.2,0.69,-0.04,-1.66,136.47,7.41
-0.28,0.68,-0.19,15.61,137.27,18.34
-0.71,0.89,-0.39,7.4,104.46,33.7
-0.8,1.14,-0.56,-4.81,66.02,36.56
-0.92,0.91,-0.8,-2.66,35.79,30.4
-1.12,0.91,-0.68,-16.83,36.93,15.48
-1.01,0.83,-0.41,-28.46,19.41,-8.54
-0.45,1.18,0.48,-12.11,-70.72,13.82
-0.21,1.52,-0.03,-4.36,-13.52,56.84
-0.8,0.95,-0.3,8.8,-188.34,29.25
1.53,0.85,-0.14,23.55,-146.76,57.08
1.14,0.8,-0.29,8.23,-13.31,50.2
0.28,1.29,-0.32,-2.73,44.66,61.85
0.19,1,-0.14,-13.27,49.84,42.9
0.17,0.95,-0.11,-16.6,62.37,47.5
-0.09,0.88,-0.27,-13.7,66.07,40.17
0.04,0.94,-0.44,-7.81,79.78,32.19
-0.05,0.98,-0.31,-13.85,94.25,30.13
-0.19,0.98,-0.23,-11.9,65.82,29.7
-0.14,0.96,-0.23,-3.84,45.49,34.39
-0.13,0.97,-0.2,-6.54,44.05,33.17
-0.01,1,-0.24,-6.85,44.86,31.2
0.05,0.95,-0.23,-6.91,52.2,29.2
0.19,0.83,-0.39,-3.9,59.89,23.52
0.14,1.16,-0.28,-3.89,100.41,17.88
-0.05,1.03,-0.23,-5.43,90.52,14.73
0,1,-0.12,-8.4,73.36,19.13
0.07,1,-0.19,-7.74,69.37,22.43
-0.01,1.01,-0.16,-8.46,69.6,23.88
-0.05,0.97,-0.06,-8.46,70.98,25.08
0.03,0.9,-0.14,-8.98,85.02,23.11
-0.16,0.96,-0.19,-10.57,99.41,19.87
-0.17,0.93,-0.4,-11.82,88.35,19.29
-0.11,0.89,-0.33,-15.02,82.61,13.96
-0.05,0.88,-0.26,-18.89,99.58,1.78
-0.12,1.28,-0.16,-3.18,127.92,-23.94
-0.19,1.09,0,-17.34,199.11,-57.68
-0.38,1.24,0.12,-36.96,250.13,-115.49
-0.35,0.84,0.08,-41.44,250.13,-160.74
-0.28,0.69,-0.06,-21.25,219.55,-177.02
-0.04,1.17,-0.12,5.98,190.47,-175.17
-0.17,1.67,-0.02,26.42,187.15,-167.38
-0.07,1.46,0.09,25.27,154.33,-148.07
0.05,1.11,0.08,42.62,103.07,-134.79
-0.14,1.18,0.09,46.21,57.87,-116.54
-0.14,1.11,0.03,52.57,16.15,-104.76
-0.16,1.01,-0.06,47.98,-14.31,-96.31
0.04,0.99,-0.03,33.82,-21.46,-96.76
0.05,0.86,0.02,24.46,-18.01,-99.62
0.16,0.97,-0.08,13.48,0.48,-81.26
0.18,0.86,-0.12,3.71,40.83,-71.1
0.05,0.77,-0.11,-3.67,69.22,-52.97
0.01,0.72,-0.1,-12.47,70.69,-39.08
-0.07,0.75,-0.11,-20.24,79.24,-16.92
-0.18,0.71,-0.12,-28.11,80.04,-5.63
-0.2,0.74,-0.15,-28,78.02,6.8
-0.27,0.66,-0.3,-20.66,85.06,21.33
-0.61,0.74,-0.46,-15.35,65.92,29.24
-0.92,1,-0.4,-16.05,2.24,34.72
-0.97,1.06,-0.38,-27.1,-40.37,28.7
-0.84,0.9,-0.55,-24.34,-58.75,28.24
-0.6,0.97,-0.33,-36.81,-35.96,19.66
-0.54,1.25,-0.14,-27.49,-13.5,26.92
-0.1,1.23,0.13,-45.48,-13.72,40.75
-0.24,0.8,-0.37,3.5,15.05,30.62
-0.11,0.98,-0.25,-11.15,-8.24,41.05
0.38,1,0.12,-16.67,-8.73,64.95
0.06,0.9,0.02,-14.97,-19.01,71.03
-0.26,0.96,-0.18,-10.71,-24.79,63.6
0.28,0.95,-0.22,-6.93,-23.46,56.04
0.19,0.98,-0.21,-10.19,0.67,48.68
-0.09,0.94,-0.2,-11,12.75,48.06
-0.01,0.96,-0.2,-10.25,10.85,48.36
-0.05,0.95,-0.15,-11.07,11.45,47.98
-0.04,0.95,-0.12,-12.55,9.82,50.15
0.05,0.96,-0.15,-13.08,15.53,50.82
0.03,0.96,-0.19,-12.8,24.24,51.49
-0.01,0.98,-0.16,-14.24,37.11,52.73
-0.05,0.97,-0.16,-15.14,36.91,54.55
-0.13,0.94,-0.18,-10.15,24.24,56.68
-0.16,0.93,-0.22,-6.69,17.53,56.17
-0.15,0.92,-0.2,-5.73,17.15,54.65
-0.18,0.91,-0.17,-5.66,15.24,48.06
-0.17,0.92,-0.22,-5.45,13.05,39.87
-0.06,0.95,-0.25,-4.95,13.75,36.25
0.04,1,-0.27,-6.73,18.02,37.02
0.26,1.07,-0.34,-5.94,28.37,42.02
0.22,1.21,-0.13,-15.76,80.12,38.37
-0.09,1.14,-0.07,-24.69,80.15,34.86
-0.16,1.11,-0.08,-27.54,59.27,30.3
-0.21,1.27,-0.31,-15.76,45.24,20.42
-0.22,1.17,-0.19,-32.74,75.82,0.81
-0.27,1.08,-0.09,-38.36,109.79,-39.19
-0.39,1.05,0.08,-57.71,139.37,-85.84
-0.39,0.72,0.03,-40.81,134.53,-129.1
-0.51,0.56,-0.34,-8.05,72.89,-146.06
-0.5,0.92,-0.29,14.02,-0.73,-143.09
-0.1,1.4,-0.33,35.31,-26.73,-136.36
0.07,1.39,-0.42,37.51,-35.11,-127.44
0.04,1.2,-0.38,45.92,-51.69,-110.96
0.02,1.19,-0.22,53.49,-86.68,-109.98
0.15,1.1,-0.24,66.3,-105.53,-92.76
0.13,0.97,-0.32,75.02,-91.39,-94.25
0.11,0.99,-0.27,73.6,-87.06,-85.44
0.15,1.03,-0.22,69.67,-88.02,-79.34
0.27,0.91,-0.16,66.57,-76.33,-70.25
0.19,0.92,-0.18,60.53,-64.28,-62.31
0.14,0.9,-0.1,44.29,-56.06,-51.46
0.13,0.92,0.01,30.33,-52.25,-30.66
0.1,0.83,0.09,14.27,-47,-9.47
0.13,0.81,0.12,3.73,-18.35,7.61
0.04,0.7,0.15,10.68,12.92,26
-0.24,0.68,-0.12,39.73,19.24,34.84
-0.48,0.83,-0.35,41.61,26.97,44.64
-0.61,0.95,-0.51,44.62,27.35,46.3
-1.1,1.17,-0.82,11.44,-20.34,34.97
-1.32,0.8,-0.57,-8.31,-79.65,30.95
-0.98,0.86,-0.56,-11.04,-124.09,37.21
-0.08,1.53,0.01,-17.84,-211.58,61.02
0.01,1.1,0.59,-20.52,-109.95,70.47
-0.52,1.01,-0.43,14.76,-125.89,42.03
1.38,0.93,0.07,10.66,-64.76,68.14
0.95,0.94,0.1,-12.91,36.43,91.04
-0.59,1.12,-0.28,-17.1,26.42,98.45
-0.24,0.92,-0.27,-14.9,-62.79,72.74
0.18,0.89,-0.14,-13.79,-65.31,78.9
0.66,0.96,-0.22,-11.08,13.46,63.21
0.19,0.95,-0.15,-15.83,56.97,59.69
-0.18,0.98,-0.17,-17.41,50.96,55
-0.02,1,-0.15,-17.48,40.89,53.11
-0.01,0.91,-0.23,-18.63,38.44,57.21
-0.01,0.95,-0.19,-13.45,33.46,54.27
-0.13,0.97,-0.17,-12.98,17.57,59.41
-0.03,0.96,-0.16,-11.94,1,60.5
-0.02,0.94,-0.16,-10.4,3.28,61.31
-0.02,0.93,-0.16,-7.63,9.98,59.02
-0.09,0.94,-0.16,-5.9,13.44,54.27
-0.07,0.91,-0.17,-3.31,12.95,48.69
-0.05,0.94,-0.2,2.92,12.08,41.99
0.03,1.01,-0.23,2.43,19.34,40.02
0.12,1.05,-0.2,-0.45,26.37,41.98
0.32,1.01,-0.27,-1.4,50.73,44.48
0.13,1.14,-0.29,-6,116.91,33.75
-0.23,1.16,-0.33,-19.33,120.08,30.91
-0.38,1.1,-0.21,-31.02,89.86,23.76
-0.29,1.08,-0.19,-33.82,58.63,16.33
-0.19,1.29,-0.28,-18.15,59.27,4.07
-0.24,1.13,-0.01,-37.21,110.3,-21.46
-0.17,0.93,0.08,-32.25,157.84,-75.49
-0.2,0.89,-0.04,-35.24,182.02,-132.11
-0.48,0.55,-0.13,-7.5,149.31,-160.91
-0.27,0.88,-0.19,34.27,85.62,-161.3
0.06,1.46,-0.19,53.99,86.46,-164.72
0.01,1.38,-0.08,55.85,63.34,-138.89
-0.08,1.18,0,74.58,25.64,-136.85
-0.07,1.24,0.04,79.95,-19.08,-128.82
-0.06,1.17,-0.1,80.39,-50.09,-117.19
0.04,1.1,-0.07,69.6,-61.3,-106.79
0.13,0.99,0.03,65.21,-65.47,-95.96
0.18,0.92,0.01,61.89,-61.08,-80.08
0.25,0.95,-0.01,54.4,-53.37,-82.5
0.26,0.89,-0.03,41.56,-20.73,-65.52
0.39,0.82,0.01,30.08,14.59,-45.56
0.28,0.73,0.01,19.41,36.73,-14.58
0.17,0.71,-0.04,14.94,50.68,5.35
0.05,0.77,-0.06,8.19,55.23,20.24
-0.11,0.67,-0.1,16.58,58.15,38.85
-0.59,0.81,-0.3,16.86,49.26,59.73
-1.05,0.96,-0.29,19.8,23.47,59.57
-1.3,1.33,-0.65,13.53,-69.32,36.62
-1.3,1.02,-0.69,-8.02,-104.13,23.73
-1.04,1.03,-0.6,-32.89,-100.92,13.31
-0.34,1.3,-0.3,-55.47,-104.58,22.41
0.59,1.27,0.42,-41.57,-77.15,59.35
-0.35,1.02,-0.42,23.49,-52.98,31.99
0.42,1,-0.12,-2.65,-103.62,63.05
1.17,0.87,0.13,-19.7,-43.47,93.03
0.39,0.97,-0.1,-15.44,-16.69,101.02
-0.22,1.05,-0.34,-15.85,-31.98,80.68
0.47,0.92,-0.21,-12.49,-16.54,73.95
0.31,0.94,-0.14,-20.11,32.27,69.37
-0.17,0.93,-0.21,-17.85,48.65,66.76
-0.02,0.97,-0.2,-16.93,53.05,59.78
-0.13,0.91,-0.22,-19.18,50.63,57.17
-0.21,0.92,-0.22,-15.53,30.6,51.6
-0.15,0.9,-0.2,-9.96,8.02,52.33
-0.09,0.92,-0.16,-5.2,-5.94,52.16
0.01,0.93,-0.14,-4.08,-4.48,52.1
-0.02,0.92,-0.15,-0.21,-0.09,50.27
0.08,0.96,-0.14,3.24,3.47,51.6
0.17,1.02,-0.12,0.85,21.55,52.29
0.07,0.99,-0.11,1.16,36.29,50.63
0.03,1.03,-0.17,1.2,46.77,44.08
0,1.13,-0.19,-3.6,58.53,42.25
0.08,1.12,-0.35,0.63,74.56,39.16
-0.14,1.15,-0.3,-10.46,100.99,37.19
-0.18,1.11,-0.29,-22.32,92.84,29.69
-0.24,1.01,-0.21,-29.87,81.93,14.89
-0.18,1.12,-0.23,-16.61,95.67,-2.66
-0.25,1.2,0.02,-32.63,146.01,-30.61
-0.27,1.02,0.11,-35.52,192.67,-77.01
-0.27,0.94,0.02,-45.58,215.62,-128.67
-0.45,0.56,-0.27,-15.75,167.06,-159.8
-0.39,0.84,-0.2,17.04,102.95,-158.1
-0.02,1.43,-0.16,37.21,97.04,-153.21
0.01,1.37,-0.18,47.28,79.6,-135.4
-0.08,1.05,-0.12,62.91,32.44,-126.74
-0.08,1.11,0.04,71.79,-12.14,-121.33
-0.12,1.15,-0.02,83.27,-44.48,-115.69
-0.08,1.14,-0.1,77.48,-68.31,-104.76
-0.04,1.1,-0.03,64.78,-89.95,-90.7
0.2,0.96,0.03,61.76,-84.44,-84.05
0.29,0.9,0.01,48.64,-55.33,-79.52
0.31,0.86,-0.01,38.71,-18.54,-70.82
0.33,0.84,0.01,27.08,24.82,-47.11
0.21,0.7,-0.01,21.34,46.69,-18.98
0.11,0.71,-0.03,14.98,53.85,2.3
-0.01,0.71,0.05,6.82,54.05,20.09
-0.25,0.69,-0.01,14.76,22.1,36.3
-0.55,0.8,-0.27,19.48,0.47,56.54
-0.83,1,-0.32,27.58,18.62,56.54
-1.23,1.31,-0.71,26.36,-33.9,43.29
-1.46,1.02,-0.58,-27.37,-86.15,16.92
-1.04,0.9,-0.68,-38.11,-110.39,17.05
0.24,1.77,0.5,-34.17,-128.21,67.44
0.18,0.82,-0.24,28.09,-21.71,64.71
-0.34,1.27,-0.08,-3.64,-36.69,27.2
0.98,0.83,0.04,-6.68,-71.6,68.49
0.75,0.84,0.09,-16.38,-30.85,93.77
-0.1,1.08,-0.44,-11.94,0.68,82.34
0.21,0.93,-0.3,-11.85,-14.74,68.76
0.28,0.94,-0.12,-18.4,-1.29,73.47
-0.14,0.91,-0.13,-16.82,5.95,67.36
0.09,0.97,-0.18,-16.71,12.02,65.12
0.14,0.96,-0.17,-18.27,27.44,64.18
0,0.93,-0.19,-15.94,33.86,64.93
-0.04,0.95,-0.19,-11.72,26.65,63
-0.01,0.95,-0.16,-10.39,21.18,60.54
-0.02,0.96,-0.18,-7.88,20.56,57.1
-0.08,0.91,-0.14,-5.78,15.84,55.03
-0.05,0.96,-0.15,-0.08,7.47,52.54
0.06,1.01,-0.19,-0.05,14.3,49.33
0.08,1.04,-0.17,-1.02,29.84,47.49
0.01,1.03,-0.15,-1.73,46.64,46.15
0.1,0.86,-0.44,6.02,45.29,43.91
-0.05,1.05,-0.32,-3.87,98.43,35.58
-0.24,1.12,-0.26,-9.82,94.77,33.03
-0.21,1.17,-0.27,-19.26,75.22,30.21
-0.26,1.08,-0.26,-25.85,56.96,23.07
-0.14,1.07,-0.14,-29.88,52.04,12.22
-0.04,1.14,-0.27,-21.02,69.53,2.06
-0.16,1.19,-0.01,-37.56,127.31,-21.48
-0.24,0.92,0.07,-33.44,176.61,-69.31
-0.33,0.89,-0.02,-45.73,202.74,-125.32
-0.45,0.52,-0.24,-12.21,141.84,-158.15
-0.41,0.76,-0.25,24.01,81.11,-157.82
-0.08,1.41,-0.19,46.36,73.47,-154.73
0.1,1.49,-0.13,45.68,59.62,-136.94
0.02,1.09,-0.07,62.84,30.76,-129.46
-0.09,1.17,0.05,71.68,-10.59,-118.85
-0.04,1.19,-0.02,79.27,-45.4,-109.51
-0.04,1.14,-0.11,72.99,-60.86,-94.88
0.02,1.03,-0.01,65.69,-71.54,-87.46
0.12,0.97,0.01,59.72,-69.23,-74.63
0.28,0.9,-0.03,54.44,-62.41,-78.91
0.31,0.96,-0.02,38.76,-23.11,-75.05
0.32,0.87,0,24.17,26.57,-54.47
0.28,0.85,0,14.71,61.02,-23.47
0.09,0.77,0,5.98,69.95,-12.02
-0.06,0.73,0,2.34,70.31,7.94
-0.19,0.66,-0.16,14.98,45.53,21.18
-0.49,0.72,-0.35,21.47,16.53,37.66
-0.63,0.96,-0.32,3.01,12.35,57.82
-0.92,1.1,-0.25,19.33,-22.28,49.91
-1.17,1.12,-0.47,-13.38,-79.34,28.09
-1.07,0.96,-0.58,-27.41,-103.15,27.98
-0.63,1.25,-0.13,-38.47,-95.02,39.89
0.16,1.52,-0.53,-53.06,-93.37,60.34
0.11,0.93,0.03,7.64,-17.14,52.76
0.24,1,-0.08,-11.42,-3.71,32.72
0.74,0.82,-0.06,-21.29,12.14,69.54
0.14,0.96,-0.03,-15.35,-15.95,91.21
-0.21,1,-0.28,-16.74,-31.19,69.56
0.38,0.96,-0.27,-12.66,-30.85,66.34
0.3,0.93,-0.16,-16.56,2.55,62.69
-0.01,0.95,-0.19,-14.95,28.4,59.31
-0.03,0.97,-0.17,-17.31,40.38,54.76
-0.11,0.91,-0.16,-16.96,30.7,51.11
-0.13,0.91,-0.22,-14.05,13.3,52.6
0,0.93,-0.2,-10.49,10.77,55.6
0,0.95,-0.18,-9.34,15.04,55.37
0,0.96,-0.15,-7.36,16.58,56.36
0,0.94,-0.14,-4.69,13.73,56.82
-0.09,0.94,-0.14,-2.4,13.21,54.79
-0.06,0.94,-0.14,0.11,14.85,48.81
-0.01,0.96,-0.14,0.37,19.66,43.26
-0.02,0.98,-0.15,2.49,28.42,38.67
0.11,1.08,-0.2,1.63,45.11,37.24
0.07,1.13,-0.27,-7,77.16,37.25
0.08,1.11,-0.44,-6.58,102.05,31.77
-0.23,1.09,-0.33,-18.05,111.78,25.82
-0.29,1.09,-0.28,-28.31,95.69,16.83
-0.25,1.07,-0.14,-30.12,80.11,6.94
-0.21,1.39,-0.09,-29.88,97.9,-13.24
-0.24,1.04,-0.01,-34.64,136.27,-44.47
-0.3,1.03,0.04,-43.92,177,-94.98
-0.35,0.75,-0.04,-36.25,169.56,-135.08
-0.46,0.59,-0.18,-9.6,139.17,-158.81
-0.24,0.95,-0.16,23.63,85.5,-161.19
0,1.43,-0.09,45.63,82.66,-160.69
0.07,1.41,-0.07,44.52,89.73,-140.6
0.05,1.18,-0.03,60.76,73.76,-131.82
-0.13,1.18,0.1,68.85,32.25,-121.98
-0.21,1.13,0,73.88,-16.49,-104.42
-0.12,1.05,-0.03,68.16,-54.3,-88.37
-0.09,0.95,0.06,62.29,-86.26,-71.57
0.14,0.83,0.02,63.95,-104.68,-65.11
0.24,0.92,-0.06,54.66,-77.45,-63.75
0.35,0.93,0.02,27.4,-36.4,-52.15
0.45,0.82,0.01,18.44,26.53,-34.85
0.42,0.72,-0.05,12.27,72.73,-12.73
0.14,0.77,-0.1,5.98,106.45,4.02
-0.12,0.82,-0.01,-4.58,106.62,21.06
-0.41,0.69,-0.18,13.59,78.09,37.85
-0.89,0.85,-0.33,3.82,37.39,54.29
-1.23,1.08,-0.36,21.7,-11.37,49.97
-1.16,1.13,-0.61,3.4,-67.69,26.66
-1,0.97,-0.55,-16.79,-74.72,10.65
-0.81,0.96,-0.25,-39.09,-64.34,8.15
-0.36,1.62,-0.3,-24.61,-111.77,39.49
0.43,0.98,0.24,-8.05,-45.37,51.68
-0.15,1.04,-0.38,14.03,-50.45,32.64
0.71,0.98,0.02,-5.84,-51.31,73.89
0.61,0.86,0.02,-21.26,-29.02,93.39
-0.01,1,-0.09,-11.61,-23.09,79.17
-0.11,0.93,-0.32,-9.44,-42.31,66.99
0.4,0.98,-0.25,-10.35,-19.98,67.18
0.19,0.91,-0.2,-13.79,15.92,57.62
-0.05,0.94,-0.21,-13.95,36.4,57.89
-0.02,0.97,-0.17,-16.03,43.82,56.2
-0.02,0.93,-0.15,-16.54,38.68,55.9
-0.04,0.93,-0.16,-11.9,30.53,57.43
-0.05,0.91,-0.18,-9.21,23.05,55.44
-0.08,0.96,-0.19,-6.45,22.08,52.25
-0.05,0.93,-0.19,-5.17,23.32,48.9
-0.05,0.95,-0.16,-3.42,27.03,46.32
-0.04,0.96,-0.16,-2.87,37.66,39.83
-0.05,0.98,-0.19,-0.24,38.55,35.96
-0.01,1.03,-0.17,2.24,41.44,34.02
0.07,1.1,-0.14,1.71,48.44,35.21
0.16,1.04,-0.21,-1.69,61.37,39.26
0.14,1.09,-0.24,-1.68,99.23,35.47
-0.06,1.03,-0.28,-8.61,116.85,35.02
-0.17,1.03,-0.27,-19.37,115.34,28.86
-0.25,0.96,-0.25,-26.74,94.47,20.93
-0.15,1.01,-0.17,-25.11,83.5,14.47
-0.15,1.3,-0.26,-13.07,91.76,1.17
-0.12,1.08,-0.03,-29.73,142.37,-26.96
-0.19,1.1,0.07,-37.3,191,-80.95
-0.29,0.84,0.08,-41.08,208.34,-124.89
-0.43,0.53,-0.1,-12.56,177.21,-158.08
-0.28,0.86,-0.08,18.44,115.99,-161.89
-0.02,1.45,-0.03,39.41,94.2,-163.79
0.01,1.47,0.06,39.05,96.95,-143.37
0.19,1.14,0.01,52.94,74.84,-133.24
-0.14,1.21,0.02,61.05,27.96,-133.92
-0.08,1.09,0.07,63.76,16.21,-89.87
-0.25,1.17,-0.01,57.88,-10.98,-108.93
-0.01,1.01,0.07,51.37,-17.84,-98.26
0.12,0.9,-0.07,47.42,-34.8,-82.75
0.15,0.81,-0.04,49.08,-45.72,-84.07
0.1,0.95,0,32.21,-28.66,-77.35
0.43,0.88,0.01,16.56,21.79,-55.62
0.25,0.77,-0.01,11.17,56.06,-45.43
0.09,0.71,-0.03,2.39,102.37,-22.24
0.39,0.68,-0.44,-0.92,72.39,5.35
0.07,0.7,-0.25,7.95,133.08,15.98
-0.32,0.72,-0.39,22.14,130.06,30.94
-0.65,0.84,-0.6,11.52,102.02,46.05
-1.13,1.01,-0.63,15.56,36.88,57.07
-1.61,1.15,-0.47,-16.53,-88.21,45.31
-1.44,0.87,-0.7,-13.92,-168.96,33.61
-0.96,0.98,-0.63,-37.64,-192.48,45.73
-0.01,1.74,-0.05,-41.85,-220.41,69.49
0.42,0.57,0.2,19.44,-106.89,47.26
0.33,1.01,0.01,9.94,-21.86,35.61
0.77,1.15,-0.11,-17.66,15.23,61.11
0.31,1.01,0.02,-19.07,23.27,75.41
-0.13,0.9,-0.37,-17.6,20.02,61.59
0.02,0.95,-0.34,-15.7,-1.32,63.73
0.03,0.9,-0.25,-18.96,-12.23,61.73
-0.01,0.93,-0.24,-14.18,-2.83,62.7
0.09,0.98,-0.18,-18.88,17.62,63.31
-0.04,0.92,-0.15,-21.97,18.15,62.79
-0.01,0.93,-0.18,-20.58,10.14,63.79
-0.01,0.94,-0.24,-15.17,17.02,64.92
-0.1,0.93,-0.21,-13.95,17.97,58.5
-0.08,0.93,-0.19,-12.08,7.44,54.23
-0.07,0.92,-0.16,-9.56,2.35,53.63
0,0.98,-0.12,-5.97,1.77,51.98
0.24,1.07,-0.08,-3.16,7.75,54.35
0.3,1.11,-0.06,-4.34,37.08,55.97
0.15,1.02,-0.21,-6.24,59.21,53.92
0.07,1.06,-0.22,-1.69,75.51,51.2
-0.13,0.99,-0.2,-2.62,78.45,47.94
-0.19,1.02,-0.28,-6.7,82.05,43.12
-0.27,0.97,-0.31,-13.66,79.26,34.02
-0.3,0.97,-0.35,-20.51,77.73,24.55
-0.24,1.04,-0.31,-26.91,71.31,18.46
-0.11,1.03,-0.26,-24.53,76.55,11.22
-0.24,1.28,-0.13,-36.35,105.02,-12.28
-0.25,0.98,-0.06,-30,123.05,-50.06
-0.42,0.98,0.08,-34.47,146.05,-101.69
-0.23,0.67,0.07,-18.79,131.2,-138.21
-0.31,0.75,-0.01,0.08,111.35,-160.95
0.09,1.25,-0.11,30.53,80.05,-170.26
-0.01,1.54,-0.03,40.62,114.58,-164.98
0.08,1.28,0.02,41.81,121.42,-141.92
0.02,1.22,0.06,56.05,105.16,-139.09
-0.11,1.19,0.06,69.69,63.16,-125.91
-0.3,1.09,-0.02,75.38,1.52,-110.69
-0.26,1.04,0.01,74.33,-60.18,-91.52
-0.01,0.98,0.04,74.16,-111.07,-80.66
0.18,0.92,-0.09,66.18,-95.13,-77.9
0.29,0.98,0.01,45.44,-65.9,-71.84
0.49,0.93,0.01,28.5,-14.29,-61.32
0.51,0.83,0.03,16.15,47.17,-35.98
0.4,0.72,-0.08,5.99,103.77,-14.8
0.12,0.74,-0.08,-0.17,130.37,6.47
-0.23,0.69,-0.12,-3.63,123.83,18.37
-0.71,0.63,-0.24,12.37,66.2,41.3
-1.02,0.8,-0.3,7.36,23.59,59.41
-1.17,1.17,-0.49,9.49,-54.89,45.98
-1.14,1.02,-0.68,9.77,-97.95,26.57
-0.97,0.96,-0.61,-42.51,-82.92,15.66
-0.47,1.51,0,-65.93,-104.96,30.85
0.23,1.12,0.56,-46.72,-31.56,58.48
-0.45,1.04,-0.44,29.7,-41.81,26.34
0.6,1.14,0,4.12,-60.01,37.52
0.95,0.85,0,-24.24,-15.99,70.56
0.18,0.96,-0.11,-10.26,-3.89,83.01
-0.27,0.99,-0.43,-9.19,-18.43,68.1
0.29,0.96,-0.22,-11.37,-14.98,66.69
0.2,0.92,-0.16,-16.27,9.03,61.59
-0.08,0.94,-0.19,-14.92,19.15,58.44
0.03,0.98,-0.2,-15.29,34.38,53.52
0.05,0.94,-0.22,-18.59,53.62,48.53
-0.04,0.93,-0.22,-16.06,53.38,49.79
-0.11,0.93,-0.21,-9.67,35.81,49.97
-0.12,0.94,-0.19,-6.44,17.12,47.08
-0.02,0.93,-0.18,-5.11,7,43.69
0.04,0.96,-0.18,-1.76,7.66,46.43
0.1,0.97,-0.15,0.62,19.71,45.76
0.14,1.02,-0.14,-0.28,44.59,43.65
-0.01,0.99,-0.2,-3.06,64.27,38.81
-0.07,0.99,-0.23,-6.6,64.43,35.82
-0.11,1,-0.24,-5.2,59.75,32.56
0.18,0.94,-0.58,10.23,52.63,30.12
0.05,1.13,-0.34,-7.43,120.5,23.78
-0.03,1.1,-0.26,-14.82,138.13,17.73
-0.17,1.08,-0.2,-22.5,137.51,12.94
-0.29,1.03,-0.22,-24.45,116.18,12.24
-0.26,1.31,-0.19,-26.31,100.67,2.96
-0.21,1,-0.1,-33.12,114.73,-16.71
-0.23,0.98,0.01,-39.15,154.45,-51.09
-0.36,1.02,0.11,-48.44,192.06,-94.4
-0.35,0.71,-0.09,-34.16,180.92,-129.75
-0.55,0.64,-0.2,-13.39,138.31,-153.57
-0.21,1.04,-0.13,18,82.03,-157.65
-0.08,1.48,-0.1,37.82,80.95,-155.43
-0.02,1.38,-0.07,38.69,78.31,-133.85
0.02,1.18,0,49.66,54.73,-127.52
-0.05,1.15,0.1,59.68,25.95,-121.49
-0.22,1.08,0.03,66.64,-10.16,-111.15
-0.23,1.01,-0.01,59.73,-44.59,-95.96
-0.03,0.97,0.05,50.46,-65.61,-87.38
0.1,0.9,0.04,44.53,-62.05,-75.47
0.23,0.9,0,37.94,-43.95,-67.21
0.26,0.88,-0.06,24.99,0.94,-59.65
0.23,0.85,-0.06,19.57,43.47,-39.8
0.15,0.73,-0.08,16.5,62.64,-19.38
0.05,0.77,-0.11,10.18,78.18,-0.16
-0.14,0.78,-0.01,7.92,85.13,18.11
-0.36,0.77,-0.09,13.13,51.55,30.96
-0.56,0.84,-0.3,13.6,5.5,45.27
-0.67,0.95,-0.42,0.89,5.52,53.38
-0.99,1.01,-0.42,11.18,-18.53,47.31
-1.32,1.03,-0.4,-2.94,-77.53,27.51
-1.08,0.89,-0.49,-13.27,-94.68,22.38
-0.33,0.93,-0.13,-34.63,-90.08,28.21
0.13,1.72,-0.08,-23.57,-91.2,64.51
-0.36,0.83,-0.3,30.1,-36.84,45.64
0.11,1.03,-0.02,-4.48,-58.51,33.01
0.94,0.88,0.05,-8.51,-36.66,62.84
0.35,0.99,-0.06,-9.62,4.18,83.5
-0.2,1.03,-0.34,-14.96,3.85,72.37
0.09,0.9,-0.25,-11.27,-27.18,71.41
0.05,0.89,-0.22,-11.41,-22.81,68.59
0.06,0.97,-0.18,-11.7,-4.49,67.51
0.1,0.97,-0.16,-14.31,17.47,65.56
-0.01,0.95,-0.14,-15.03,15.03,63.44
0.04,0.96,-0.18,-13.46,9.85,66.64
0.05,0.96,-0.19,-12.41,17.95,66.05
0,0.97,-0.2,-13.29,25.62,58.96
-0.03,0.98,-0.21,-10.88,25.3,55.37
0.01,0.96,-0.17,-9.17,26.14,53.74
-0.05,0.99,-0.18,-4.24,20.68,51.66
0.08,1.1,-0.16,-4.18,21.47,52.17
0.17,1.05,-0.25,-5.77,29.33,55.04
0.14,1.11,-0.16,-6.79,70.34,49.11
-0.09,0.99,-0.16,-7.25,82.43,44.91
-0.17,1.01,-0.25,-9.26,78.62,42.5
-0.22,0.96,-0.28,-11.08,67.8,36.25
-0.2,0.96,-0.3,-17.84,75.32,29.42
-0.16,1.01,-0.27,-27.85,73.63,22.21
-0.08,1,-0.13,-33.71,73.18,14.27
-0.07,1.04,-0.24,-22.88,91.98,4.15
-0.3,1.3,-0.03,-39.31,133.6,-21.63
-0.38,1,0.09,-42.98,167.12,-69.97
-0.33,0.87,-0.08,-47.29,173.21,-127.17
-0.47,0.52,-0.31,-7.66,119.71,-163.6
-0.46,0.87,-0.21,24.38,61.38,-168.14
-0.18,1.56,-0.25,42.49,42.03,-155.59
0.11,1.45,-0.19,41.24,26.85,-133.09
0.08,1.12,-0.13,57.08,10.26,-129.24
-0.06,1.13,0,68.59,-13.55,-123.62
-0.03,1.09,-0.06,80.94,-40.17,-106.09
-0.15,1.07,-0.14,82.23,-75.74,-95.38
-0.04,1.09,-0.11,81.96,-110.2,-84.05
0.19,1,-0.12,76.53,-117.88,-76.05
0.32,0.94,-0.12,61.86,-93.53,-76.17
0.44,0.9,-0.04,46,-43.1,-70.63
0.43,0.86,-0.02,31.73,8.25,-56.92
0.26,0.8,0,23.89,36.47,-32.38
0.11,0.79,-0.02,12.09,51.45,-9.8
-0.04,0.77,0.05,5.74,43.65,10.27
-0.28,0.7,-0.05,21.98,20.62,30.03
-0.54,0.76,-0.37,30.24,-4.65,46.1
-0.66,0.91,-0.37,27.38,2.21,56.21
-0.95,1.24,-0.46,21.72,-51.06,51.26
-1.28,0.97,-0.48,-6.15,-89.62,26.25
-1.09,0.88,-0.57,-23.76,-90.35,22.83
-0.48,1.31,0,-24.15,-114.86,43.5
0.13,1.28,0.34,-42.44,-97.53,45.43
0.03,0.9,-0.14,28.49,-42.82,32.89
0.68,1.19,-0.23,-4.9,-25.95,46.76
0.78,0.96,-0.02,-20.34,10.05,83.33
-0.02,0.98,-0.14,-12.15,-0.6,91.44
-0.37,0.95,-0.34,-13.56,-28.28,70.55
0.12,0.9,-0.23,-10.49,-40.81,62.73
0.12,0.92,-0.19,-12.83,-23.54,66.89
0.07,0.95,-0.15,-11.63,3.34,67.36
0.06,1.01,-0.16,-18.82,33.69,63.8
-0.05,0.95,-0.15,-23.78,40.24,61.56
-0.11,0.9,-0.19,-19.68,16.7,64.6
-0.09,0.91,-0.2,-11.57,6.31,66.55
-0.04,0.97,-0.18,-9.89,10,62.77
-0.09,0.94,-0.16,-8.83,5.31,57.27
0,0.94,-0.13,-3.79,-6.56,60.18
0.13,1,-0.11,-0.06,2.15,63.43
0.12,1.01,-0.14,0.11,24.08,61.94
0.03,1.05,-0.2,-4.7,42.55,59.19
-0.04,1.05,-0.17,-7.79,47.56,54.61
-0.06,0.94,-0.38,-0.99,34.69,53.82
-0.1,1.06,-0.25,-4.82,66.92,46.83
-0.22,1.04,-0.25,-9.44,70.71,36.62
-0.24,1.07,-0.25,-16.6,68.36,23.69
-0.18,1.06,-0.19,-22.49,60.45,14.31
-0.03,1.05,-0.14,-26.08,68.72,5.77
-0.14,1.24,-0.28,-20.17,78.61,-4.98
-0.27,1.18,-0.05,-37.36,122.6,-30.46
-0.39,1,0.04,-44.6,144.39,-75.29
-0.44,0.85,-0.01,-51.69,149.72,-129.78
-0.43,0.49,-0.24,-13.64,98.07,-164.67
-0.42,0.75,-0.32,18.91,35.22,-170.32
-0.12,1.43,-0.26,39.21,24.98,-158.61
0.15,1.53,-0.29,43.35,21.3,-140.78
0.05,1.18,-0.27,60.88,13.76,-133.24
0,1.27,-0.11,72.77,-16.76,-128.76
